accx,accy,accz,UpdatedTime,gyrx,gyry,gyrz,Label
0.03570556640625,-0.4913177490234375,-0.9290008544921876,16698337865,-0.0149959940463304,0.1102689802646637,0.1053250879049301,fall
0.0235443115234375,-0.4678955078125,-0.8798370361328125,16698337866,-0.1547088921070099,0.1590008288621902,0.0808533057570457,fall
0.040985107421875,-0.4616241455078125,-0.8652191162109375,16698337867,0.07916060090065,-0.0083756418898701,0.0445933006703853,fall
0.03912353515625,-0.432373046875,-0.935333251953125,16698337868,-0.1239600256085395,-0.1493988037109375,-0.0957286581397056,fall
0.0193328857421875,-0.429656982421875,-0.853759765625,16698337869,-0.0311507284641265,0.13943912088871,0.0832887664437294,fall
0.018768310546875,-0.47314453125,-0.8079376220703125,16698337870,-0.0679276511073112,-0.0749330967664718,0.133815050125122,fall
0.0068359375,-0.4538421630859375,-0.9212188720703124,16698337871,-0.1473031640052795,-0.1833258867263794,-0.0676179230213165,fall
0.019866943359375,-0.4575653076171875,-0.917205810546875,16698337872,-0.1472440510988235,-0.0454628244042396,-0.0774503201246261,fall
-0.004730224609375,-0.5007171630859375,-0.8643646240234375,16698337873,-0.2077151089906692,-0.0950253158807754,0.0970045775175094,fall
-0.0137786865234375,-0.4779205322265625,-0.80975341796875,16698337874,-0.2036055922508239,-0.255417913198471,0.0491574257612228,fall
-0.013458251953125,-0.406005859375,-0.7540740966796875,16698337875,-0.1111105382442474,-0.0406132079660892,-0.0302987843751907,fall
-0.09088134765625,-0.317901611328125,-0.658599853515625,16698337876,-0.1229142025113105,-0.0267256200313568,0.0377383232116699,fall
-0.1605987548828125,-0.14453125,-0.4776153564453125,16698337877,0.1045082956552505,0.1250670999288559,-0.0375686809420585,fall
-0.1584320068359375,-0.3388824462890625,-0.3369293212890625,16698337878,2.044330358505249,-0.4148235619068146,-0.8160915970802307,fall
0.509063720703125,-0.8618316650390625,0.0390472412109375,16698337879,0.3024357557296753,0.5000601410865784,1.4301968812942505,fall
0.8737945556640625,-1.416534423828125,0.205963134765625,16698337880,2.355902671813965,-0.7214657664299011,3.831165552139282,fall
0.2937774658203125,-0.841949462890625,-1.0891265869140625,16698337881,-4.518857002258301,2.388723134994507,3.970345258712769,fall
-1.8857574462890625,1.3626861572265625,-5.8944091796875,16698337882,3.863744020462036,2.5675320625305176,-0.0526440367102623,fall
0.1415557861328125,-0.76397705078125,-1.4019622802734375,16698337883,1.139740824699402,0.6911773681640625,0.5078973174095154,fall
-0.4354705810546875,-0.30224609375,-0.3127593994140625,16698337884,-1.9477018117904663,1.1527389287948608,-1.1236776113510132,fall
0.066619873046875,-0.160400390625,-1.045074462890625,16698337885,0.13841512799263,-1.1657164096832275,-1.673914670944214,fall
0.0222930908203125,-0.128448486328125,-1.265380859375,16698337886,0.7475700974464417,2.045767307281494,-1.0780084133148191,fall
0.3260345458984375,-0.9836883544921876,-1.009307861328125,16698337887,0.2457221448421478,3.2409181594848637,1.5280888080596924,fall
0.587738037109375,-0.5630645751953125,-0.8574676513671875,16698337888,0.6342182159423828,0.7366313934326172,0.6339886784553528,fall
0.2763214111328125,-0.2704620361328125,-0.2700042724609375,16698337889,1.4556691646575928,2.0504486560821533,0.6047199964523315,fall
0.4260406494140625,-0.4297943115234375,-0.54296875,16698337890,2.111278295516968,-0.1611012667417526,0.0730403885245323,fall
0.494720458984375,-0.89947509765625,-0.530242919921875,16698337891,-2.50158166885376,0.577045738697052,1.6952764987945557,fall
0.37164306640625,-0.6937408447265625,-0.778167724609375,16698337892,0.3202861249446869,0.943376362323761,0.9463103413581848,fall
0.111785888671875,-0.7165069580078125,-0.6173248291015625,16698337893,0.0204078033566474,0.0952961593866348,1.1702414751052856,fall
0.1458740234375,-0.64678955078125,-0.42822265625,16698337894,-0.5164079666137695,-0.1285872757434845,1.2033778429031372,fall
0.1578369140625,-0.66314697265625,-0.6318206787109375,16698337895,0.1705469638109207,-1.279242753982544,-0.2719968855381012,fall
0.1918487548828125,-0.696258544921875,-0.7058868408203125,16698337896,1.3212580680847168,-1.863457441329956,-0.5846091508865356,fall
-0.0611114501953125,-0.7830352783203125,-0.744720458984375,16698337897,-0.0331307873129844,-0.6104910373687744,0.1260924190282821,fall
0.0145416259765625,-0.6835174560546875,-0.8272552490234375,16698337898,0.265917956829071,-0.4063429832458496,-0.1692609339952469,fall
-0.020751953125,-0.4271087646484375,-0.8312225341796875,16698338560,0.1907782107591629,-0.0173518266528844,0.0043063312768936,fall
-0.03076171875,-0.4299774169921875,-0.865142822265625,16698338561,-0.0428790226578712,0.0911733210086822,-0.0417615622282028,fall
-0.0345001220703125,-0.4488525390625,-0.914459228515625,16698338562,-0.089510440826416,0.079685240983963,0.0106430565938353,fall
-0.038604736328125,-0.4281005859375,-0.9705810546875,16698338563,-0.3444849550724029,0.0846773386001586,-0.0227228887379169,fall
-0.029022216796875,-0.46075439453125,-0.81170654296875,16698338564,0.0924961119890213,-0.0046528088860213,0.0673686563968658,fall
-0.0276641845703125,-0.4283447265625,-0.8937225341796875,16698338565,0.0731538385152816,-0.1385730654001236,-0.019384616985917,fall
-0.056854248046875,-0.4364013671875,-0.907623291015625,16698338566,-0.0292404424399137,-0.0497329346835613,-0.0687875896692276,fall
-0.055877685546875,-0.5087738037109375,-0.8771820068359375,16698338567,-0.0845827981829643,-0.1319383233785629,0.0472956113517284,fall
-0.0553436279296875,-0.497039794921875,-0.895263671875,16698338568,-0.2271436750888824,-0.1413454115390777,0.0814067050814628,fall
-0.054962158203125,-0.476165771484375,-0.8493194580078125,16698338569,0.1806707084178924,-0.1822763383388519,0.1419115960597992,fall
-0.1031341552734375,-0.394622802734375,-0.6601104736328125,16698338570,0.2461131066083908,-0.0721548870205879,-0.018852250650525,fall
-0.093902587890625,-0.2859954833984375,-0.43218994140625,16698338571,0.0851641595363617,-0.1370143145322799,-0.1237142160534858,fall
-0.1210174560546875,-0.37298583984375,-0.4029998779296875,16698338572,-1.2973490953445437,-0.7480430603027344,0.2567628026008606,fall
0.10906982421875,-0.503082275390625,-0.3884124755859375,16698338573,-0.0122505407780408,-1.4889203310012815,-0.6466490626335144,fall
0.6480865478515625,-1.143463134765625,-0.356842041015625,16698338574,0.0562907010316848,0.0786306262016296,0.4119268357753753,fall
0.2450103759765625,-0.9395599365234376,-0.7252349853515625,16698338575,0.7873819470405579,3.984199523925781,2.3954854011535645,fall
-0.037750244140625,-0.2734527587890625,-1.674896240234375,16698338576,2.592416286468506,2.77424693107605,2.5096547603607178,fall
1.3597869873046875,-0.6827392578125,-3.50079345703125,16698338577,0.0781083852052688,4.280121326446533,-1.4266793727874756,fall
-0.0522308349609375,-0.6285247802734375,-0.7543487548828125,16698338578,3.331704616546631,0.2922734022140503,-1.2501139640808103,fall
0.2015533447265625,-0.5114898681640625,-0.633331298828125,16698338579,0.4999142289161682,3.997128486633301,-1.3212943077087402,fall
0.411895751953125,-0.1730194091796875,-0.82525634765625,16698338580,-0.8106182813644409,-1.0600944757461548,-1.0166950225830078,fall
0.765869140625,-0.4170989990234375,-0.86444091796875,16698338581,0.1428567469120025,0.6205437183380127,-0.219401866197586,fall
0.6738433837890625,-0.47369384765625,-0.544219970703125,16698338582,0.1872172951698303,0.5812021493911743,-0.519059956073761,fall
0.3246917724609375,-0.37298583984375,-0.7833404541015625,16698338583,0.1286796778440475,-0.838850736618042,0.2270587086677551,fall
0.5294342041015625,-0.43023681640625,-0.86114501953125,16698338584,-0.0277072619646787,-0.5480378270149231,0.0803896486759185,fall
0.3739776611328125,-0.3922119140625,-0.7948150634765625,16698338585,-0.3649172484874725,-0.2902092039585113,0.1376204490661621,fall
0.4248199462890625,-0.5590057373046875,-0.7559051513671875,16698338586,0.344663918018341,0.2189086377620697,0.529893159866333,fall
0.448516845703125,-0.4738006591796875,-0.80194091796875,16698338587,0.0332953706383705,0.0898622423410415,-0.13884337246418,fall
0.3898162841796875,-0.4239501953125,-0.7691497802734375,16698338588,-0.0650833919644355,0.0149390017613768,-0.0464559160172939,fall
0.39813232421875,-0.4733734130859375,-0.784912109375,16698338589,-0.6622847318649292,0.2582952082157135,-0.0232651084661483,fall
0.4688720703125,-0.4179229736328125,-0.8454742431640625,16698338590,0.0536019764840602,-0.89899742603302,-0.1344978958368301,fall
0.31256103515625,-0.3363189697265625,-0.849273681640625,16698338591,-0.5560174584388733,-0.2592850923538208,-0.3967308402061462,fall
0.4273834228515625,-0.2968902587890625,-0.81561279296875,16698338592,0.6706289649009705,1.1653965711593628,0.5109397172927856,fall
0.3641357421875,-0.408203125,-0.7836761474609375,16698338593,-0.1112096086144447,-0.0559474229812622,-0.0030032468494027,fall
0.419403076171875,-0.4409027099609375,-0.7663421630859375,16698338594,-0.1126250848174095,0.1285414695739746,-0.0306098405271768,fall
0.425140380859375,-0.3773956298828125,-0.838592529296875,16698338595,-0.0797472894191742,-0.4450845122337341,-0.0767056941986084,fall
0.446014404296875,-0.3498077392578125,-0.861602783203125,16698338596,0.3884417414665222,-0.191196322441101,-0.0765632167458534,fall
0.308441162109375,-0.29290771484375,-0.7794036865234375,16698338597,-0.1416857689619064,-0.0204991493374109,0.0660333484411239,fall
0.447235107421875,-0.4370880126953125,-0.7913818359375,16698338598,0.0350320190191268,-0.0664922073483467,0.0601829141378402,fall
0.4349212646484375,-0.45989990234375,-0.94378662109375,16698338599,-0.0601514875888824,-1.1234734058380127,-0.6456589102745056,fall
0.223358154296875,-0.2718048095703125,-0.94573974609375,16698338600,0.0747727751731872,-1.0326404571533203,-1.210268497467041,fall
0.0914459228515625,-0.245452880859375,-0.7452545166015625,16698338601,3.14307713508606,-0.3027614653110504,-1.590196967124939,fall
0.512481689453125,-0.4598388671875,-0.848052978515625,16698338602,-0.894147515296936,3.431698799133301,-0.0485414378345012,fall
0.665283203125,-0.4577789306640625,-0.5957183837890625,16698338603,0.2784912884235382,1.07502281665802,-0.0993630737066268,fall
0.8057861328125,-0.504119873046875,-0.6657562255859375,16698338604,-0.720646858215332,1.04647958278656,0.308248370885849,fall
0.0063934326171875,-0.25750732421875,-0.9011993408203124,16698339320,0.1422857791185379,0.0400174558162689,0.1725683063268661,fall
0.0024261474609375,-0.2719879150390625,-0.9652252197265624,16698339321,-0.0847737416625022,0.0279767736792564,0.0058387145400047,fall
0.01409912109375,-0.2308349609375,-1.04046630859375,16698339322,-0.0257349237799644,0.1086340695619583,-0.0725056231021881,fall
0.0085601806640625,-0.2509918212890625,-0.958099365234375,16698339323,0.0662282854318618,0.1340310424566269,-0.0711500793695449,fall
0.0636138916015625,-0.289337158203125,-0.8856048583984375,16698339324,0.0103833982720971,0.0414728745818138,-0.1134149730205535,fall
0.0650787353515625,-0.254730224609375,-0.933868408203125,16698339325,0.0579549111425876,-0.1101390197873115,0.0222203508019447,fall
0.0189208984375,-0.25634765625,-0.991607666015625,16698339326,-0.0049356361851096,0.0397868268191814,0.0469483323395252,fall
0.0205841064453125,-0.3130645751953125,-0.983734130859375,16698339327,-0.1884253025054931,-0.0018263958627358,0.0004546015989035,fall
0.0458221435546875,-0.3194580078125,-0.962799072265625,16698339328,-0.0198251027613878,-0.1021769717335701,0.1321039795875549,fall
0.0312347412109375,-0.32672119140625,-0.8882904052734375,16698339329,0.0902888849377632,-0.0418869964778423,0.1323026418685913,fall
0.014404296875,-0.3079071044921875,-0.8384552001953125,16698339330,-0.0085905585438013,0.0334365181624889,-0.0234813578426837,fall
-0.0351104736328125,-0.2725067138671875,-0.8138885498046875,16698339331,-0.5837486386299133,0.3399679660797119,-0.0946016088128089,fall
0.0365753173828125,-0.265899658203125,-0.7424468994140625,16698339332,-0.2658886611461639,-0.5794479250907898,-0.4326986968517303,fall
-0.02703857421875,-0.0754852294921875,-0.5072784423828125,16698339333,-0.2725441753864288,0.7797163128852844,-1.4843785762786863,fall
0.9808807373046876,0.0116119384765625,-1.2191162109375,16698339334,0.4201810359954834,1.0444071292877195,-2.508031845092773,fall
1.313140869140625,-1.016021728515625,-0.1578826904296875,16698339335,0.0128457574173808,-0.9974574446678162,1.5546735525131226,fall
0.76123046875,-1.1230316162109375,-0.710052490234375,16698339336,3.060809373855591,2.671596050262451,3.9455957412719727,fall
0.123931884765625,-0.4169158935546875,-0.469207763671875,16698339337,4.4890851974487305,1.1957560777664185,3.201165199279785,fall
0.8076171875,0.20806884765625,-2.058822631835937,16698339338,-0.3762497901916504,-10.279119491577148,2.9714596271514893,fall
-1.761260986328125,-0.6395721435546875,-1.325897216796875,16698339339,-0.3073684573173523,1.9815207719802856,-0.2274291664361953,fall
0.7886505126953125,-0.618927001953125,-1.32861328125,16698339340,-0.8128079175949097,1.1947752237319946,-1.617712378501892,fall
0.0329742431640625,-0.4934844970703125,-0.3588714599609375,16698339341,0.8083892464637756,-0.4107851386070251,-0.7627410292625427,fall
0.54791259765625,-0.2866363525390625,-0.8896026611328125,16698339342,-0.159388855099678,-0.5543638467788696,-1.2110860347747805,fall
0.5660400390625,-0.54376220703125,-0.2852325439453125,16698339343,0.9085296988487244,-1.0718605518341064,0.4524761140346527,fall
-0.31182861328125,-0.444183349609375,-1.1481781005859375,16698339344,0.5227407217025757,-0.2465940713882446,0.0878523588180542,fall
-0.03668212890625,-0.5858306884765625,-0.4998016357421875,16698339345,0.1097627133131027,-0.5906726121902466,0.2707651853561401,fall
-0.3881072998046875,-0.8155670166015625,-0.50457763671875,16698339346,0.2626214921474457,-0.0782378166913986,0.0274068564176559,fall
-0.211517333984375,-0.7687225341796875,-0.7151947021484375,16698339347,-0.2359179854393005,0.3151286542415619,-0.1562625765800476,fall
-0.0721588134765625,-0.6147308349609375,-0.7447967529296875,16698339348,-0.2873143255710602,0.0091956285759806,0.0444297827780246,fall
-0.139892578125,-0.634368896484375,-0.7122650146484375,16698339349,0.1134589165449142,0.0831161886453628,-0.0898097828030586,fall
-0.107452392578125,-0.7170562744140625,-0.7358245849609375,16698339350,0.245856374502182,0.0624343492090702,-0.0446686670184135,fall
-0.1651153564453125,-0.8100738525390625,-0.72369384765625,16698339351,-0.6296980381011963,0.4100772738456726,-0.0387338139116764,fall
-0.0291290283203125,-0.589202880859375,-0.757568359375,16698339352,0.1042419821023941,0.2087047398090362,-0.0855697616934776,fall
-0.0443115234375,-0.6138458251953125,-0.7573394775390625,16698339353,0.0798676684498786,0.0568643473088741,-0.0496714152395725,fall
-0.05926513671875,-0.7062225341796875,-0.7437744140625,16698339354,0.0380957201123237,-0.2028228789567947,-0.0039651803672313,fall
-0.0974884033203125,-0.7213134765625,-0.76171875,16698339355,-0.1558119654655456,0.0911283120512962,0.0726752653717994,fall
-0.02520751953125,-0.5947418212890625,-0.7647552490234375,16698339356,0.7665656208992004,-0.1036837846040725,0.6272636651992798,fall
-0.167449951171875,-0.7569122314453125,-0.6580352783203125,16698339357,0.3373061418533325,-0.1421065479516983,0.4595428109169006,fall
-0.14251708984375,-0.723419189453125,-0.69793701171875,16698339358,0.3059423565864563,-0.2003714442253112,0.2415697425603866,fall
-0.2023773193359375,-0.7499542236328125,-0.6391754150390625,16698339359,0.2636998295783996,-0.2438446134328842,0.3030778467655182,fall
-0.23968505859375,-0.7580108642578125,-0.617950439453125,16698339360,0.1833653002977371,-0.235453262925148,0.1834574490785598,fall
-0.2420196533203125,-0.76171875,-0.588623046875,16698339361,0.0271818190813064,0.0488351844251155,-0.0555612631142139,fall
-0.238861083984375,-0.7618408203125,-0.608123779296875,16698339362,-0.0469509959220886,0.0215380489826202,0.0028767467010766,fall
-0.233306884765625,-0.751678466796875,-0.604736328125,16698339363,-0.0341361314058303,0.0457139573991298,-0.0308516565710306,fall
-0.3054351806640625,-0.821502685546875,-0.5884246826171875,16698339364,-0.2973645627498626,0.2581479251384735,-0.2739226222038269,fall
-0.088836669921875,-0.63311767578125,-0.7358551025390625,16698339365,-0.801271378993988,0.3350120782852173,-0.8558089137077332,fall
-0.131011962890625,-0.7129974365234375,-0.6588134765625,16698339366,0.1261467486619949,-0.0444058142602443,-0.0442739874124527,fall
-0.1187744140625,-0.7175750732421875,-0.727752685546875,16698339367,-0.0153680369257926,0.0561636686325073,-0.0453546978533268,fall
-0.1327667236328125,-0.749725341796875,-0.740875244140625,16698339368,0.0382848046720027,-0.1181564703583717,-0.022319421172142,fall
-0.0049896240234375,-0.685394287109375,-0.848724365234375,16698339369,-0.0892510488629341,-0.3509915769100189,0.0015952334506437,fall
-0.05438232421875,-0.6852569580078125,-0.67401123046875,16698339370,0.0854659005999565,-0.0383953265845775,0.087721861898899,fall
-0.1099395751953125,-0.70684814453125,-0.6566925048828125,16698339371,0.1109259873628616,-0.1771414875984192,0.1285321414470672,fall
-0.1621246337890625,-0.7551727294921875,-0.7357330322265625,16698339372,0.1188606098294258,-0.3279858529567718,0.1341242492198944,fall
-0.1205902099609375,-0.698272705078125,-0.661285400390625,16698339373,0.2061560899019241,-0.1949180960655212,0.0789211839437484,fall
-0.1488494873046875,-0.74041748046875,-0.6989898681640625,16698339374,0.0864145159721374,-0.050016563385725,0.103908821940422,fall
-0.171539306640625,-0.744232177734375,-0.628387451171875,16698339375,0.0459065064787864,-0.1146978214383125,0.089607648551464,fall
0.050323486328125,-0.1744232177734375,-0.899078369140625,16698339911,0.0744678452610969,0.1189405024051666,0.1153923720121383,fall
0.07861328125,-0.1788787841796875,-0.9208831787109376,16698339912,0.1299364268779754,0.2044580727815628,0.2010582685470581,fall
0.0676116943359375,-0.1807403564453125,-1.070556640625,16698339913,-0.0902364179491996,-0.1398804038763046,-0.156813308596611,fall
0.0390472412109375,-0.1763763427734375,-1.1043243408203125,16698339914,-0.1210539862513542,0.0484737940132617,-0.0788034722208976,fall
0.0307769775390625,-0.2118988037109375,-0.9281768798828124,16698339915,0.1441649049520492,-0.0400904268026351,0.1592572927474975,fall
0.0464935302734375,-0.1946868896484375,-0.8264007568359375,16698339916,0.1515732854604721,-0.012035890482366,0.0718717947602272,fall
0.0393524169921875,-0.1806793212890625,-0.9355926513671876,16698339917,-0.0993601456284523,-0.0920545607805252,0.0120753049850463,fall
0.035736083984375,-0.223358154296875,-1.0713958740234375,16698339918,-0.2260027676820755,-0.1328142434358596,-0.0678554773330688,fall
-0.0059814453125,-0.279876708984375,-1.0261993408203125,16698339919,-0.2677622139453888,0.0912612006068229,0.0118678444996476,fall
-0.01800537109375,-0.2795562744140625,-0.91717529296875,16698339920,-0.1067999526858329,0.1226018145680427,0.2854053676128387,fall
-0.0023193359375,-0.3348388671875,-1.060333251953125,16698339921,-0.9314157962799072,0.9767926335334778,1.1734875440597534,fall
0.1109619140625,0.0326690673828125,-0.5264129638671875,16698339922,-1.1385974884033203,-0.8267072439193726,0.3073700666427612,fall
0.04736328125,0.3601226806640625,-0.503082275390625,16698339923,2.515387535095215,-1.6125032901763916,-2.7345070838928223,fall
0.8162689208984375,-0.3511505126953125,-0.057098388671875,16698339924,1.3887386322021484,-3.4947142601013184,-0.7663264870643616,fall
-0.200653076171875,-1.550445556640625,-0.8916473388671875,16698339925,3.488508462905884,-0.7389782071113586,6.075264930725098,fall
-0.25299072265625,-1.04132080078125,0.52215576171875,16698339926,6.000353813171387,-2.5689074993133545,2.318902969360352,fall
1.58636474609375,0.700927734375,-3.403839111328125,16698339927,-0.1548135429620742,3.177235841751098,1.3855425119400024,fall
-1.5595245361328125,-0.2701263427734375,0.333984375,16698339928,7.432425498962402,2.750684976577759,0.9063789248466492,fall
0.5313568115234375,-0.0218505859375,-1.347381591796875,16698339929,-2.159978151321411,0.1666741967201233,-1.5201642513275146,fall
0.116302490234375,-0.200653076171875,-0.4485321044921875,16698339930,-0.9378814101219176,1.5504742860794067,-0.4495093524456024,fall
-0.0806884765625,-0.246978759765625,-0.933349609375,16698339931,1.3066562414169312,-0.1260034739971161,-0.2736949324607849,fall
0.4019317626953125,-0.4546661376953125,0.0139923095703125,16698339932,-0.1026107966899871,-0.4163018763065338,-0.1412684470415115,fall
-0.430755615234375,-0.87445068359375,-1.4799957275390625,16698339933,-0.7931106686592102,-0.7180063128471375,0.3140668570995331,fall
0.111846923828125,-0.404937744140625,-0.640106201171875,16698339934,0.3758657574653625,-0.3831143677234649,-0.6127883195877075,fall
-0.208892822265625,-0.63885498046875,-0.7976837158203125,16698339935,0.1804821640253067,-0.2459703534841537,0.1247627064585685,fall
-0.2061004638671875,-0.4788360595703125,-0.6587677001953125,16698339936,-0.0926540344953537,0.1746573001146316,0.0167744532227516,fall
0.02703857421875,-0.6674957275390625,-1.0087127685546875,16698339937,-0.2970439195632934,0.1187567412853241,0.0284542776644229,fall
-0.1264801025390625,-0.5593414306640625,-0.824066162109375,16698339938,-0.0819252282381057,0.0372182093560695,0.01066888961941,fall
-0.0798797607421875,-0.5406646728515625,-0.8191070556640625,16698339939,0.2742227613925934,-0.0973835438489914,-0.0392486043274402,fall
-0.1315765380859375,-0.7385101318359375,-0.7670135498046875,16698339940,-0.0756111368536949,0.1337151825428009,-0.0197388175874948,fall
-0.1367950439453125,-0.7037353515625,-0.686279296875,16698339941,-0.3288559317588806,0.3002053499221802,-0.6718273758888245,fall
-0.0899505615234375,-0.6020355224609375,-0.8386077880859375,16698339942,0.1077650785446167,-0.1304440200328827,0.0799054875969886,fall
-0.0422210693359375,-0.607574462890625,-0.7590484619140625,16698339943,0.1913662254810333,0.0124689200893044,0.0061556305736303,fall
-0.032318115234375,-0.6415252685546875,-0.851409912109375,16698339944,-0.0399175882339477,-0.0333377160131931,-0.0234368834644556,fall
-0.0451812744140625,-0.556854248046875,-0.74578857421875,16698339946,0.3230001628398895,-0.2411281913518905,0.1060923486948013,fall
-0.0741119384765625,-0.59906005859375,-0.7946319580078125,16698339947,0.5376967191696167,-0.1716455221176147,0.1665431708097458,fall
-0.0249176025390625,-0.6160888671875,-0.709869384765625,16698339948,0.3066557943820953,-0.5518496036529541,0.1620576083660125,fall
-0.196044921875,-0.7094268798828125,-0.7130584716796875,16698339949,0.2538588941097259,-0.549315333366394,0.0503822155296802,fall
-0.2392120361328125,-0.6963653564453125,-0.648193359375,16698339950,0.3197375237941742,-0.5200189352035522,0.0851311385631561,fall
-0.272308349609375,-0.7299346923828125,-0.681182861328125,16698339952,0.0529841221868991,-0.1025796383619308,0.0024746092967689,fall
-0.0644989013671875,-0.3460693359375,-0.9734039306640624,16698340200,-0.1613031327724456,0.1427805870771408,-0.0495281368494033,fall
-0.0386962890625,-0.3843841552734375,-0.91070556640625,16698340201,0.0760305821895599,0.0745506659150123,0.0590984746813774,fall
-0.0418243408203125,-0.3267822265625,-0.91717529296875,16698340202,-0.0399402268230915,0.0915512219071388,0.0299104955047369,fall
0.0028839111328125,-0.2731781005859375,-0.9079742431640624,16698340203,-0.9339228868484496,0.7751529812812805,0.3943614363670349,fall
0.0187225341796875,-0.331787109375,-0.9433441162109376,16698340204,0.2555654644966125,0.0617666952311992,0.195102110505104,fall
0.0418701171875,-0.3780059814453125,-1.039642333984375,16698340205,-0.1845261752605438,-0.1843235045671463,0.1108548790216445,fall
-0.00445556640625,-0.3441162109375,-0.9800872802734376,16698340206,-0.0770327299833297,-0.0399018749594688,0.133816123008728,fall
-0.0468597412109375,-0.3680572509765625,-0.9294891357421876,16698340207,-0.036292228847742,-0.177975058555603,0.2507520616054535,fall
-0.097625732421875,-0.2988739013671875,-0.880096435546875,16698340208,-0.7924275994300842,-0.4332859218120575,0.0963403806090354,fall
-0.0562744140625,-0.1768646240234375,-0.8649139404296875,16698340209,-1.2532404661178589,-0.0824381485581398,1.00134539604187,fall
0.016510009765625,-0.123077392578125,-0.7086944580078125,16698340210,0.5066807866096497,-1.201026201248169,-0.1586897820234298,fall
0.1784820556640625,-0.107269287109375,-0.60992431640625,16698340211,1.1905213594436646,-0.2716661393642425,0.1157417818903923,fall
-0.2903594970703125,-0.4217376708984375,-0.54510498046875,16698340212,2.2580583095550537,-1.3013488054275513,-0.068746842443943,fall
0.2743377685546875,-0.811248779296875,0.0665435791015625,16698340213,1.8044133186340328,-0.0628428757190704,0.6239317655563354,fall
0.4453277587890625,-1.0309906005859375,0.7465972900390625,16698340214,3.4082322120666504,-2.4297749996185303,1.5793447494506836,fall
-0.573883056640625,-0.73876953125,-0.3713226318359375,16698340215,-0.6413190364837646,1.0885359048843384,1.208614945411682,fall
0.2168731689453125,-0.606170654296875,-6.7698516845703125,16698340216,0.2259340584278106,2.230631828308105,-0.5754212141036987,fall
-1.9885406494140625,-0.215057373046875,0.13104248046875,16698340217,1.6480841636657717,1.238442301750183,1.101400375366211,fall
1.3606109619140625,-0.3481292724609375,0.1004791259765625,16698340218,2.8886992931365967,2.937217950820923,-2.3259153366088867,fall
0.2626190185546875,-0.5211029052734375,-1.0628814697265625,16698340219,0.5466668009757996,-0.3043588399887085,0.0729434490203857,fall
0.0909423828125,-0.2808685302734375,0.173858642578125,16698340220,-0.6335247159004211,-1.5538711547851562,0.4015072286128998,fall
-0.03466796875,-0.8559417724609375,-0.799285888671875,16698340221,0.5914555788040161,-0.6032419204711914,0.3571946024894714,fall
0.06378173828125,-0.3541107177734375,-1.069000244140625,16698340222,-1.5916056632995603,-0.5488694906234741,0.0052533512935042,fall
-0.2420654296875,-0.519805908203125,-0.6645965576171875,16698340224,0.5449842214584351,-0.394315630197525,0.0561516843736171,fall
-0.194183349609375,-0.6753082275390625,-0.891357421875,16698340225,0.1690641194581985,-0.3892649412155151,0.0689180791378021,fall
-0.1008758544921875,-0.5391693115234375,-0.84271240234375,16698340226,-0.2993366420269012,-0.0297091603279113,0.0842448398470878,fall
-0.09613037109375,-0.4609375,-0.87701416015625,16698340228,0.254150241613388,0.0544243603944778,0.0357161872088909,fall
-0.11114501953125,-0.536346435546875,-0.8031463623046875,16698340229,0.0722419694066047,-0.0459232814610004,0.0337310656905174,fall
-0.1319580078125,-0.603057861328125,-0.82562255859375,16698340230,-0.2998551726341247,0.1940296590328216,-0.0705617815256118,fall
-0.1302337646484375,-0.5323028564453125,-0.8142852783203125,16698340231,-0.1141678541898727,-0.0247040148824453,0.0315507352352142,fall
-0.0927734375,-0.5021820068359375,-0.881805419921875,16698340232,0.1005234122276306,0.0378485806286335,0.016434634104371,fall
-0.0915679931640625,-0.54290771484375,-0.856842041015625,16698340233,-0.4588243067264557,0.8268832564353943,-0.0093903057277202,fall
-0.097076416015625,-0.5597381591796875,-0.8147125244140625,16698340234,0.1942120790481567,0.2150412052869796,-0.2505081295967102,fall
-0.0137786865234375,-0.4723663330078125,-0.774810791015625,16698340235,-0.051639225333929,0.080501765012741,-0.0200253725051879,fall
-0.0361480712890625,-0.5066986083984375,-0.848052978515625,16698340236,0.0407644733786582,0.1201146915555,-0.0881114825606346,fall
0.0047149658203125,-0.51715087890625,-0.850860595703125,16698340237,-0.0394121222198009,0.0840328484773635,0.0003366235469002,fall
0.0003204345703125,-0.5270843505859375,-0.8802337646484375,16698340238,0.0313161127269268,-0.0723588839173317,-0.015597335062921,fall
-0.0082855224609375,-0.5077667236328125,-0.8208160400390625,16698340239,0.0433322936296463,-0.0281655918806791,0.0394174456596374,fall
-0.06500244140625,-0.56298828125,-0.7976226806640625,16698340240,-0.0777776166796684,-0.0485520884394645,-0.0094960331916809,fall
-0.0694732666015625,-0.533843994140625,-0.856903076171875,16698340241,0.0174391772598028,-0.1481649726629257,0.0462074428796768,fall
-0.002166748046875,-0.4781036376953125,-0.9015655517578124,16698340242,0.4867086708545685,-0.8091314435005188,0.1766946166753769,fall
-0.127349853515625,-0.566131591796875,-0.6908416748046875,16698340243,0.43941330909729,-0.5725492835044861,-0.1662811189889907,fall
-0.0359649658203125,-0.5113983154296875,-0.660003662109375,16698340244,0.236386701464653,-0.5998077988624573,0.0677585378289222,fall
-0.2850341796875,-0.636566162109375,-0.7995147705078125,16698340245,0.0939882770180702,-0.224597692489624,0.055131696164608,fall
-0.375732421875,-0.7200164794921875,-0.585662841796875,16698340246,0.1093328818678855,-0.2047789841890335,0.0220789369195699,fall
0.0883941650390625,-0.3067626953125,-1.02777099609375,16698341886,-0.2789599895477295,-0.0071812137030065,-0.108242318034172,fall
0.0623931884765625,-0.320068359375,-0.961212158203125,16698341887,-0.0487752631306648,-0.0396510064601898,0.1171244904398918,fall
0.040924072265625,-0.309417724609375,-0.8927154541015625,16698341888,0.1011649668216705,-0.1464120745658874,0.0688744038343429,fall
0.033966064453125,-0.2859039306640625,-0.9242095947265624,16698341889,-0.148783877491951,-0.1488837599754333,-0.0864310264587402,fall
0.0160675048828125,-0.2654571533203125,-0.9103546142578124,16698341890,-0.1265177279710769,0.0181433167308568,-0.0051385695114731,fall
0.0142364501953125,-0.28521728515625,-0.907501220703125,16698341891,-0.1371980756521225,-0.1294336169958114,0.0341174900531768,fall
0.02099609375,-0.288970947265625,-0.984466552734375,16698341892,-0.325053721666336,-0.0739501267671585,-0.1066960841417312,fall
0.018524169921875,-0.334716796875,-0.8311309814453125,16698341893,0.1885877549648285,0.0124843660742044,-0.0034314829390496,fall
-0.052947998046875,-0.242767333984375,-0.659942626953125,16698341894,0.9380316138267516,-0.5079798698425293,0.0697266161441803,fall
0.125,-0.1346282958984375,-0.6507568359375,16698341895,2.213153600692749,-0.8345286846160889,-1.2381504774093628,fall
-0.105377197265625,-0.5752716064453125,-0.6031494140625,16698341896,-2.694587469100952,-0.8543820381164551,-0.4568423926830292,fall
1.1540374755859375,-1.7952880859375,0.2509002685546875,16698341897,1.432623028755188,0.5649914741516113,3.1078670024871826,fall
0.2533416748046875,-1.521392822265625,0.8695526123046875,16698341898,2.72627854347229,-1.4723150730133057,2.814196825027466,fall
-0.7677459716796875,0.44000244140625,-2.2854461669921875,16698341899,-0.4495208263397217,-1.844024419784546,1.575711965560913,fall
-1.261810302734375,0.16851806640625,-3.4838409423828125,16698341900,3.969007015228272,4.266587734222412,-0.1670145541429519,fall
0.433685302734375,-0.1677398681640625,-1.545257568359375,16698341901,-2.361580610275269,2.800420999526977,-0.9454554915428162,fall
0.2108001708984375,-0.410888671875,-0.81414794921875,16698341902,-0.7699273228645325,0.8085522055625916,-0.9143542647361756,fall
0.138916015625,-0.528472900390625,-0.7426300048828125,16698341903,0.0960319936275482,0.6031324863433838,0.2814878821372986,fall
0.2609405517578125,-0.33135986328125,-0.7796783447265625,16698341904,0.8180860877037048,-0.3015255033969879,0.0376206114888191,fall
0.4484405517578125,-0.8524322509765625,-1.105926513671875,16698341905,-0.1589302569627761,-0.7201536297798157,0.015223161317408,fall
0.0645294189453125,-0.3501129150390625,-0.6120758056640625,16698341906,-0.0419636964797973,-0.1311143487691879,0.3126037120819092,fall
0.0052490234375,-0.198883056640625,-0.7752227783203125,16698341907,0.432317316532135,-0.0801856517791748,-0.058182880282402,fall
0.056671142578125,-0.418670654296875,-1.0513916015625,16698341908,0.222374752163887,-0.0921810567378997,0.0085048051550984,fall
0.2570953369140625,-0.5004119873046875,-1.1392669677734375,16698341909,0.262965589761734,-0.1147135347127914,0.0836496204137802,fall
0.17047119140625,-0.42059326171875,-0.9308319091796876,16698341910,-0.2149202972650528,0.0516988821327686,-0.0286297798156738,fall
0.1195831298828125,-0.3585205078125,-0.8611907958984375,16698341911,-0.1900623440742492,0.0120484074577689,-0.0231159720569849,fall
0.1335906982421875,-0.357696533203125,-0.8327178955078125,16698341912,0.0462071746587753,0.011331483721733,0.0113935358822345,fall
0.1727142333984375,-0.411346435546875,-0.8770904541015625,16698341913,0.0280377604067325,0.2974393963813782,0.0401205196976661,fall
0.178009033203125,-0.4249420166015625,-0.9474945068359376,16698341914,0.0190714299678802,0.0131008885800838,0.1045863330364227,fall
0.17620849609375,-0.388153076171875,-0.89044189453125,16698341915,-0.0942322239279747,-0.0352834202349185,-0.0174823217093944,fall
0.0836639404296875,-0.385101318359375,-0.7070770263671875,16698341916,-0.0825721099972724,-0.1470131427049636,-0.1136807575821876,fall
0.1496124267578125,-0.4054107666015625,-0.911773681640625,16698341917,0.030890803784132,0.1211147084832191,0.0224488507956266,fall
0.2033538818359375,-0.399017333984375,-0.943603515625,16698341918,0.0314993374049663,-0.1249896064400672,0.0747498720884323,fall
0.2068634033203125,-0.36590576171875,-0.9114227294921876,16698341919,0.1165481805801391,-0.1578463613986969,0.1121044307947158,fall
0.237518310546875,-0.3479461669921875,-0.868682861328125,16698341920,-0.0535633601248264,0.0029156287200748,0.0064901234582066,fall
0.20147705078125,-0.416656494140625,-0.846221923828125,16698341921,0.2064000368118286,-0.2901372909545898,0.0153685696423053,fall
0.0361785888671875,-0.507659912109375,-0.9393463134765624,16698341922,0.4197373688220978,-0.6799774765968323,-0.0797568783164024,fall
0.01251220703125,-0.37799072265625,-0.947296142578125,16698342109,0.1026667207479476,0.0050107375718653,0.0122713139280676,fall
0.02752685546875,-0.362640380859375,-0.8799285888671875,16698342110,-0.0509622506797313,0.0178708769381046,-0.0956868454813957,fall
0.03546142578125,-0.32598876953125,-0.9206085205078124,16698342111,-0.0638490170240402,0.0324428938329219,-0.0179507713764905,fall
0.043731689453125,-0.330810546875,-0.977996826171875,16698342112,-0.1452722400426864,0.0274127162992954,0.1067163273692131,fall
0.039154052734375,-0.3665618896484375,-0.9453277587890624,16698342113,-0.214921623468399,0.0024823325220495,-0.1490025371313095,fall
0.0305938720703125,-0.349334716796875,-0.9393157958984376,16698342114,-0.0039822249673306,0.0224965196102857,-0.0361231155693531,fall
0.0414886474609375,-0.30108642578125,-0.9402008056640624,16698342115,0.2172944992780685,0.0486215986311435,-0.0103820674121379,fall
0.0400238037109375,-0.32421875,-0.97430419921875,16698342116,-0.0682243257761001,0.0118265654891729,0.0563237257301807,fall
0.0270843505859375,-0.350982666015625,-0.9417266845703124,16698342117,-0.0538243502378463,-0.0963023006916046,0.0562494248151779,fall
0.0365447998046875,-0.3379058837890625,-0.9392547607421876,16698342118,-0.0598390996456146,-0.0313840210437774,-0.039742887020111,fall
0.027618408203125,-0.3280487060546875,-0.9577484130859376,16698342119,-0.02380439825356,4.23442616011e-05,0.0167419612407684,fall
0.025909423828125,-0.3427581787109375,-0.93853759765625,16698342120,0.0716789811849594,-0.0088984202593564,0.0793875008821487,fall
0.0350494384765625,-0.3516845703125,-0.9329986572265624,16698342121,-0.0458034425973892,0.0090140011161565,-0.0048110005445778,fall
0.03448486328125,-0.3288726806640625,-0.932586669921875,16698342122,-0.0199020691215991,-4.12789959227e-05,0.0368333831429481,fall
0.0272064208984375,-0.3376312255859375,-0.960205078125,16698342123,0.0102920522913336,0.0003246393462177,0.069214753806591,fall
0.0318756103515625,-0.3465728759765625,-0.9366302490234376,16698342124,-0.0113408053293824,0.0177720729261636,0.0385519191622734,fall
0.0070648193359375,-0.3575439453125,-0.9307861328125,16698342125,0.025906965136528,0.0606678761541843,-0.0257146842777729,fall
-0.004486083984375,-0.3508148193359375,-0.8888092041015625,16698342126,-0.0628205090761184,-0.0359649248421192,-0.0099985720589756,fall
0.0373687744140625,-0.3702850341796875,-0.88720703125,16698342127,-0.2817102372646332,-0.1974795162677765,-0.0854951962828636,fall
0.067047119140625,-0.3690032958984375,-0.977264404296875,16698342128,-0.4160139858722687,0.1043993756175041,0.0096369143575429,fall
0.0639495849609375,-0.37298583984375,-0.9286651611328124,16698342129,-0.5163632035255432,-0.6785670518875122,0.0636050775647163,fall
-0.0342559814453125,-0.4112548828125,-0.945068359375,16698342130,-2.704751491546631,-0.6316285729408264,0.1259265094995498,fall
-0.0689544677734375,-0.168243408203125,-0.730987548828125,16698342131,0.7808590531349182,-0.1697799861431121,0.1897145360708236,fall
0.5200347900390625,-0.4345550537109375,-0.7015380859375,16698342132,0.5420176982879639,-0.806503176689148,0.5141698718070984,fall
0.255462646484375,-0.35406494140625,-0.2560272216796875,16698342133,1.0830967426300049,-1.1673929691314695,1.8010917901992798,fall
0.3679351806640625,-0.555267333984375,-0.145751953125,16698342134,1.37829852104187,-1.4700231552124023,2.462677240371704,fall
0.028106689453125,-0.869049072265625,-0.4923858642578125,16698342135,4.984125137329102,-0.8461203575134277,3.018378496170044,fall
-0.3761444091796875,-0.088104248046875,-1.20184326171875,16698342136,2.477524280548096,1.9981119632720947,0.4702782928943634,fall
-2.1002197265625,-0.1654205322265625,-8.0543212890625,16698342137,5.545393943786621,4.079373836517334,0.0704078525304794,fall
-0.3934783935546875,-2.099090576171875,1.8985443115234373,16698342138,-8.415481567382812,-0.7363552451133728,-4.473911762237549,fall
1.7350006103515625,-0.4198760986328125,-1.0383453369140625,16698342139,-0.8969923257827759,-0.2313642501831054,0.4639295935630798,fall
0.0475921630859375,-0.287750244140625,-0.9822540283203124,16698342140,-0.7408725023269653,0.0476154573261737,0.8778870701789856,fall
-0.0915374755859375,-0.014801025390625,-1.4440765380859375,16698342141,1.8761999607086184,2.550978183746338,0.4275963306427002,fall
0.3493499755859375,-0.204833984375,-0.1975250244140625,16698342142,-0.8425735831260681,0.6296330690383911,-0.1392273902893066,fall
0.6207427978515625,-0.544189453125,-1.1389923095703125,16698342143,0.5801539421081543,-0.5329096913337708,1.3060359954833984,fall
0.6226043701171875,-0.5108795166015625,-0.9118804931640624,16698342144,0.2250259220600128,0.3289211690425873,1.4024581909179688,fall
0.4068450927734375,-0.5402069091796875,-0.5899200439453125,16698342145,0.3735632002353668,0.2498577684164047,0.6990236043930054,fall
0.187042236328125,-0.412689208984375,-0.3652801513671875,16698342146,-0.1298030018806457,0.0744095221161842,0.5304295420646667,fall
0.2800750732421875,-0.57861328125,-0.5950775146484375,16698342147,-0.0314026623964309,-0.2392922192811966,-0.0300636272877454,fall
0.460296630859375,-0.6812744140625,-0.816619873046875,16698342148,-0.3185649216175079,0.1247765496373176,-0.0780796185135841,fall
0.460357666015625,-0.6406097412109375,-0.8694610595703125,16698342149,-0.3833202123641968,0.4038649201393127,-0.19598388671875,fall
0.423828125,-0.478057861328125,-0.7222137451171875,16698342150,-0.5541476011276245,0.8244744539260864,-0.1787630915641784,fall
0.4412384033203125,-0.428466796875,-0.5562286376953125,16698342151,-0.1461502909660339,0.5495837926864624,0.1477942466735839,fall
0.6395111083984375,-0.4670867919921875,-0.7153778076171875,16698342152,-0.0724142789840698,0.0212307199835777,0.0061361892148852,fall
0.62847900390625,-0.4984588623046875,-0.78863525390625,16698342153,0.0704989358782768,0.0198432132601737,0.0826844945549964,fall
0.55755615234375,-0.4893951416015625,-0.701141357421875,16698342154,-0.0380078367888927,0.2114461958408355,0.0646322593092918,fall
0.538299560546875,-0.443603515625,-0.622344970703125,16698342155,0.1457606703042984,-0.1110399663448333,0.040076844394207,fall
0.6165313720703125,-0.4327392578125,-0.7089691162109375,16698342156,0.1716710925102234,-0.3061141073703766,0.1023822948336601,fall
0.5877532958984375,-0.490081787109375,-0.7578582763671875,16698342157,0.2536927163600921,-0.6381037831306458,0.0598699897527694,fall
0.5589141845703125,-0.560760498046875,-0.7335662841796875,16698342158,0.6875605583190918,-1.0141756534576416,0.1477338075637817,fall
0.4031982421875,-0.5524444580078125,-0.6768341064453125,16698342159,0.5885945558547974,-0.6899952292442322,0.0277136527001857,fall
0.4140167236328125,-0.574249267578125,-0.625335693359375,16698342160,0.2689265310764313,-0.8269528150558472,-0.0459770783782005,fall
0.453277587890625,-0.5887298583984375,-0.7322235107421875,16698342161,0.420540302991867,-1.0406829118728638,0.0650375857949256,fall
0.1606597155332565,-0.0325864404439926,-0.0513534694910049,16698342367,0.1606597155332565,-0.0325864404439926,-0.0513534694910049,fall
-0.04657469317317,-0.0613584332168102,-0.0127775808796286,16698342368,-0.04657469317317,-0.0613584332168102,-0.0127775808796286,fall
-0.3385998904705047,-0.1424450278282165,-0.0596918277442455,16698342369,-0.3385998904705047,-0.1424450278282165,-0.0596918277442455,fall
0.019302325323224,-0.0605552233755588,-0.0872068107128143,16698342370,0.019302325323224,-0.0605552233755588,-0.0872068107128143,fall
-0.0632372945547103,0.0373266004025936,-0.0537583045661449,16698342371,-0.0632372945547103,0.0373266004025936,-0.0537583045661449,fall
-0.1306333839893341,-0.1459683924913406,0.2161304354667663,16698342372,-0.1306333839893341,-0.1459683924913406,0.2161304354667663,fall
-0.4878932237625122,-0.4657570421695709,0.2648143470287323,16698342373,-0.4878932237625122,-0.4657570421695709,0.2648143470287323,fall
-0.5069449543952942,0.0228208936750888,0.242733284831047,16698342374,-0.5069449543952942,0.0228208936750888,0.242733284831047,fall
1.255916714668274,0.5921461582183838,0.4327074885368347,16698342375,1.255916714668274,0.5921461582183838,0.4327074885368347,fall
-0.5113282799720764,-1.3540602922439575,-0.0092531535774469,16698342376,-0.5113282799720764,-1.3540602922439575,-0.0092531535774469,fall
-1.8036556243896484,0.4719685912132263,1.6262792348861694,16698342377,-1.8036556243896484,0.4719685912132263,1.6262792348861694,fall
3.3018949031829834,-0.5756763815879822,0.3545418381690979,16698342378,3.3018949031829834,-0.5756763815879822,0.3545418381690979,fall
0.6712156534194946,0.1977415680885315,0.4854460656642914,16698342379,0.6712156534194946,0.1977415680885315,0.4854460656642914,fall
1.7143886089324951,1.3459423780441284,2.395374298095703,16698342380,1.7143886089324951,1.3459423780441284,2.395374298095703,fall
-0.7003794312477112,3.0184850692749023,-0.92231285572052,16698342381,-0.7003794312477112,3.0184850692749023,-0.92231285572052,fall
3.4864962100982666,1.4200198650360107,1.9483388662338257,16698342382,3.4864962100982666,1.4200198650360107,1.9483388662338257,fall
-3.535224437713623,1.976001858711243,-4.076362133026123,16698342383,-3.535224437713623,1.976001858711243,-4.076362133026123,fall
-0.4318440854549408,1.644755721092224,1.182623028755188,16698342384,-0.4318440854549408,1.644755721092224,1.182623028755188,fall
-0.6016051769256592,0.5111956596374512,0.8473454117774963,16698342385,-0.6016051769256592,0.5111956596374512,0.8473454117774963,fall
0.5135471820831299,0.2053733915090561,0.4155676364898681,16698342386,0.5135471820831299,0.2053733915090561,0.4155676364898681,fall
0.7928038835525513,-0.3759629726409912,0.5116952657699585,16698342387,0.7928038835525513,-0.3759629726409912,0.5116952657699585,fall
0.3449067771434784,-0.3155614137649536,-0.1003971770405769,16698342388,0.3449067771434784,-0.3155614137649536,-0.1003971770405769,fall
0.2737178206443786,-0.2796130180358886,0.0871482193470001,16698342389,0.2737178206443786,-0.2796130180358886,0.0871482193470001,fall
0.3181529343128204,-0.0429458692669868,0.0752556025981903,16698342390,0.3181529343128204,-0.0429458692669868,0.0752556025981903,fall
-0.0975585132837295,0.2503504455089569,0.0629640519618988,16698342391,-0.0975585132837295,0.2503504455089569,0.0629640519618988,fall
-0.1694817095994949,-0.163624882698059,-0.2066471874713897,16698342392,-0.1694817095994949,-0.163624882698059,-0.2066471874713897,fall
0.1271717995405197,-0.1444093734025955,-0.3062731027603149,16698342393,0.1271717995405197,-0.1444093734025955,-0.3062731027603149,fall
-0.2013059556484222,0.0050035468302667,0.0719644725322723,16698342394,-0.2013059556484222,0.0050035468302667,0.0719644725322723,fall
0.1579472869634628,0.1720524579286575,0.1520166993141174,16698342395,0.1579472869634628,0.1720524579286575,0.1520166993141174,fall
-0.1738024204969406,0.4682015478610992,-0.0163914896547794,16698342396,-0.1738024204969406,0.4682015478610992,-0.0163914896547794,fall
0.1463124752044677,-0.0257905852049589,0.0502242892980575,16698342397,0.1463124752044677,-0.0257905852049589,0.0502242892980575,fall
0.085911177098751,-0.0656573101878166,0.0989657267928123,16698342398,0.085911177098751,-0.0656573101878166,0.0989657267928123,fall
-0.2097375094890594,0.2045299708843231,0.0298497751355171,16698342399,-0.2097375094890594,0.2045299708843231,0.0298497751355171,fall
-0.1075136736035347,0.1197341233491897,-0.042408175766468,16698342400,-0.1075136736035347,0.1197341233491897,-0.042408175766468,fall
-0.035224299877882,-0.0604010261595249,-0.003638677066192,16698342401,-0.035224299877882,-0.0604010261595249,-0.003638677066192,fall
0.3441073000431061,-0.2547931373119354,0.1703965067863464,16698342402,0.3441073000431061,-0.2547931373119354,0.1703965067863464,fall
0.1176043972373008,-0.251350998878479,0.0106710204854607,16698342403,0.1176043972373008,-0.251350998878479,0.0106710204854607,fall
0.1947977095842361,-0.4926728010177612,0.0167049448937177,16698342404,0.1947977095842361,-0.4926728010177612,0.0167049448937177,fall
0.1466419100761413,-0.2228639721870422,0.2196545898914337,16698342405,0.1466419100761413,-0.2228639721870422,0.2196545898914337,fall
-0.0323028564453125,-0.497711181640625,-0.8358306884765625,16698342884,0.0494732782244682,-0.138973593711853,-0.1268042773008346,fall
0.004608154296875,-0.4583282470703125,-0.797454833984375,16698342885,0.0527004972100257,-0.0165358334779739,-0.1017199680209159,fall
0.01910400390625,-0.4753570556640625,-0.8458709716796875,16698342886,-0.1914373338222503,0.0177252013236284,-0.016277240589261,fall
-0.001617431640625,-0.4972381591796875,-0.9467926025390624,16698342887,-0.271257609128952,0.0573088303208351,-0.0099045624956488,fall
-0.0067138671875,-0.5106658935546875,-0.8784332275390625,16698342888,-0.0963449105620384,-0.0162229128181934,0.0119474735110998,fall
-0.0046234130859375,-0.4794464111328125,-0.78558349609375,16698342889,-0.1207740902900695,0.0168162640184164,-0.069904513657093,fall
0.0135498046875,-0.4627227783203125,-0.7547149658203125,16698342890,-0.5618393421173096,0.4969996511936188,0.4136365950107574,fall
0.04461669921875,-0.492462158203125,-0.5556640625,16698342891,0.1442708969116211,0.011847604997456,-0.3882313668727875,fall
-0.0111236572265625,-0.34136962890625,-0.4680328369140625,16698342892,1.5251774787902832,-4.657395839691162,0.1038060262799263,fall
0.0324554443359375,-0.312835693359375,-0.279998779296875,16698342893,0.9816749691963196,-1.6441107988357544,3.808238029479981,fall
0.2143707275390625,-0.24468994140625,0.0154876708984375,16698342894,1.424264430999756,3.0612130165100098,2.2066516876220703,fall
0.09039306640625,-0.914154052734375,-0.25775146484375,16698342895,0.6459659337997437,5.164052486419678,2.029051780700684,fall
-0.8024444580078125,0.904937744140625,-2.958984375,16698342896,-2.9111921787261963,9.696222305297852,-0.039039809256792,fall
-0.303009033203125,0.4034881591796875,0.0047607421875,16698342897,0.3131043910980224,-1.773941993713379,0.7335943579673767,fall
0.2625885009765625,-0.3094635009765625,-1.9815216064453125,16698342898,-0.3589765429496765,3.0969882011413574,-1.65199613571167,fall
0.9758453369140624,0.155487060546875,-0.2266082763671875,16698342899,-5.22915506362915,0.6970866918563843,1.5433257818222046,fall
0.6106719970703125,-0.117156982421875,-1.826751708984375,16698342900,0.8307414054870605,0.0470830909907817,2.957991600036621,fall
0.0407257080078125,-0.25146484375,-0.7484283447265625,16698342901,1.1362483501434326,0.595116913318634,2.0070996284484863,fall
0.3016815185546875,-0.298553466796875,-0.524322509765625,16698342902,0.2028404623270034,0.6629396080970764,1.2179735898971558,fall
0.4825592041015625,-0.3424530029296875,-0.7146759033203125,16698342903,0.1408910751342773,0.3167462646961212,0.5238690972328186,fall
0.6159820556640625,-0.841552734375,-0.8001708984375,16698342904,0.5616806149482727,-0.2700881958007812,0.5434329509735107,fall
0.5313568115234375,-0.654205322265625,-0.7322540283203125,16698342905,0.4109917879104614,0.1953500509262085,0.7618345022201538,fall
0.3159942626953125,-0.5150299072265625,-0.57867431640625,16698342906,0.5896598100662231,0.1440722197294235,0.2613650262355804,fall
0.29766845703125,-0.4762115478515625,-0.3603057861328125,16698342907,0.2217558324337005,-0.0067756143398582,-0.0031081752385944,fall
0.4705810546875,-0.632598876953125,-0.5286712646484375,16698342908,-0.0535915903747081,0.0340589024126529,-0.0533311329782009,fall
0.623931884765625,-0.7077178955078125,-0.67108154296875,16698342909,-0.3610604703426361,0.2654455304145813,0.0401458218693733,fall
0.5579986572265625,-0.60736083984375,-0.6885833740234375,16698342910,-0.2314073890447616,0.2715335190296173,-0.1683748960494995,fall
0.532501220703125,-0.46514892578125,-0.5684051513671875,16698342911,-0.083865076303482,0.3518629670143127,-0.1743654161691665,fall
0.59307861328125,-0.4464874267578125,-0.512451171875,16698342912,-0.1970787197351455,0.4198044538497925,0.1162310019135475,fall
0.6540985107421875,-0.603759765625,-0.7112579345703125,16698342913,0.0044466801919043,-0.2407215237617492,-0.0432713069021701,fall
0.655303955078125,-0.5717010498046875,-0.69830322265625,16698342914,0.1890833675861358,-0.076206088066101,0.0923008993268013,fall
0.4655914306640625,-0.481903076171875,-0.4782257080078125,16698342915,0.1443846076726913,0.2040362209081649,0.0400811061263084,fall
0.546722412109375,-0.500213623046875,-0.4650726318359375,16698342916,-0.0234246328473091,0.0688762664794921,-0.0697433948516845,fall
0.6430816650390625,-0.5115203857421875,-0.5525665283203125,16698342917,-0.0622322149574756,-0.4537845253944397,-0.0979009941220283,fall
0.74163818359375,-0.4674224853515625,-0.729888916015625,16698342918,0.6819173097610474,-1.3579541444778442,0.3121248781681061,fall
0.3056488037109375,-0.57342529296875,-0.5422821044921875,16698342919,-0.0222717504948377,-0.3434175550937652,-0.285231739282608,fall
0.479644775390625,-0.565216064453125,-0.68426513671875,16698342920,0.0127677265554666,-0.3417911529541015,-0.0799776539206504,fall
0.4801025390625,-0.5517730712890625,-0.7313690185546875,16698342921,0.1679059118032455,-0.422561377286911,0.0278713125735521,fall
-0.0263671875,-0.3473663330078125,-0.9404144287109376,16698343361,0.0315568596124649,-0.1168555095791816,-0.0827068611979484,fall
-0.0398101806640625,-0.378936767578125,-0.9097442626953124,16698343362,0.0203492138534784,-0.0906095281243324,-0.1108980253338813,fall
-0.018707275390625,-0.3998260498046875,-0.93896484375,16698343363,-0.0680224597454071,-0.1142306998372078,-0.1958350092172622,fall
-0.014129638671875,-0.3963775634765625,-0.952484130859375,16698343364,-0.0021054951939731,-0.0953249186277389,-0.1550689488649368,fall
-0.002838134765625,-0.4066009521484375,-0.9066009521484376,16698343365,0.0727298632264137,-0.0701719000935554,-0.0901008620858192,fall
0.0122222900390625,-0.395294189453125,-0.9030303955078124,16698343366,-0.0031742216087877,0.0446974299848079,-0.0844344571232795,fall
0.0110015869140625,-0.3890228271484375,-0.8953094482421875,16698343367,0.0098563591018319,0.0031430625822395,0.0001147822404163,fall
-0.013427734375,-0.4041595458984375,-0.915374755859375,16698343368,-0.0738822147250175,-0.0026136261876672,0.0555367618799209,fall
-0.019775390625,-0.425628662109375,-0.9222869873046876,16698343369,-0.0923895835876464,-0.0084600634872913,0.0816506519913673,fall
-0.0097808837890625,-0.42572021484375,-0.90155029296875,16698343370,-0.0954626053571701,-0.0013920343481004,0.0546462014317512,fall
-0.0033721923828125,-0.4154815673828125,-0.8629608154296875,16698343371,-0.0637166649103164,0.0461650975048542,0.0821095183491706,fall
-0.018310546875,-0.4467315673828125,-0.834747314453125,16698343372,-0.1628677397966385,0.1480392664670944,0.2331839799880981,fall
0.0189666748046875,-0.4654083251953125,-0.97064208984375,16698343373,-1.0230469703674316,-0.2222642302513122,0.2848298847675323,fall
0.040740966796875,-0.2646331787109375,-0.2406158447265625,16698343374,0.0802740678191185,-4.044319152832031,2.194025993347168,fall
-0.0627593994140625,-0.3684234619140625,-0.3331298828125,16698343375,0.7155354619026184,-2.748265027999878,0.3490384221076965,fall
0.2017669677734375,-0.3783416748046875,-0.1339569091796875,16698343376,0.6787180304527283,0.0672852993011474,-0.6324639916419983,fall
0.136962890625,-1.143280029296875,-0.2215576171875,16698343377,1.7034997940063477,0.4215525686740875,1.065380334854126,fall
-0.235076904296875,-0.7752532958984375,-0.73284912109375,16698343378,2.667280673980713,1.3239338397979736,1.062320351600647,fall
-2.1719512939453125,1.377685546875,-3.6289215087890634,16698343379,-0.2892872095108032,9.67789363861084,-1.131609320640564,fall
-0.1992034912109375,0.240509033203125,1.500213623046875,16698343380,-2.786283254623413,0.5729210376739502,-0.4115292131900787,fall
1.3651580810546875,0.9913482666015624,-1.43499755859375,16698343381,1.0454188585281372,1.4521527290344238,1.420387625694275,fall
0.5142822265625,-0.49285888671875,-0.6945343017578125,16698343382,-0.6478104591369629,1.492767333984375,2.281111001968384,fall
0.0923004150390625,-0.3217315673828125,-1.170623779296875,16698343383,-0.3114673495292663,0.792454719543457,1.0898696184158323,fall
0.4804840087890625,-0.1580352783203125,-0.665802001953125,16698343384,-0.1182507425546646,0.3320604860782623,-0.1072079464793205,fall
0.6013946533203125,-0.1495361328125,-0.90728759765625,16698343385,-0.0345646366477012,0.18850839138031,0.6883642673492432,fall
0.47088623046875,-0.4161529541015625,-0.8416748046875,16698343386,-0.3145739138126373,0.29117351770401,-0.0430619828402996,fall
0.516571044921875,-0.3163909912109375,-0.8339996337890625,16698343387,-0.1053338795900344,0.0461650975048542,0.0906982123851776,fall
0.4166107177734375,-0.2502899169921875,-0.7255401611328125,16698343388,-0.1490818858146667,0.6220055222511292,0.0826586633920669,fall
0.503448486328125,-0.21551513671875,-0.7318115234375,16698343389,0.1436455845832824,0.0406057499349117,0.193756952881813,fall
0.4885406494140625,-0.2670745849609375,-0.871856689453125,16698343390,-0.1879262328147888,-0.2172433733940124,-0.0903336256742477,fall
0.5832977294921875,-0.234771728515625,-0.9791717529296876,16698343391,0.6236801147460938,-1.9414116144180296,-0.1570660471916198,fall
0.479736328125,-0.236175537109375,-0.806976318359375,16698343392,0.1364617049694061,-0.3831236958503723,-0.292182594537735,fall
0.2946929931640625,-0.2810211181640625,-0.7486419677734375,16698343393,-0.0840517580509185,0.3644059300422668,0.0178343914449214,fall
0.3524169921875,-0.3155670166015625,-0.69140625,16698343394,-0.5696282982826233,0.7161714434623718,0.1770208477973938,fall
0.4723663330078125,-0.2080841064453125,-0.7757110595703125,16698343395,-0.5341305136680603,1.4600095748901367,0.09120874106884,fall
0.5783233642578125,-0.19476318359375,-0.8018951416015625,16698343396,0.0740156397223472,0.3086047172546386,0.2537952661514282,fall
0.549285888671875,-0.22576904296875,-0.7660980224609375,16698343397,0.2740081250667572,-0.1169234216213226,0.0605959706008434,fall
0.536712646484375,-0.2521514892578125,-0.8234100341796875,16698343398,0.114573985338211,-0.4592112600803375,0.0304417945444583,fall
0.523193359375,-0.2806396484375,-0.853759765625,16698343399,0.0601086094975471,-0.282836765050888,0.0459331385791301,fall
0.4896392822265625,-0.267852783203125,-0.84967041015625,16698343400,0.03458833694458,-0.0085242455825209,-0.0606236644089221,fall
0.470916748046875,-0.252471923828125,-0.815826416015625,16698343401,-0.1142698526382446,0.0445877090096473,-0.0738497227430343,fall
0.49481201171875,-0.2469329833984375,-0.86602783203125,16698343402,-0.0078611187636852,0.0959491655230522,-0.0804322585463523,fall
0.5818328857421875,-0.2083892822265625,-0.8160400390625,16698343403,-0.0505012571811676,0.2204058766365051,-0.0432963408529758,fall
0.5610809326171875,-0.2042999267578125,-0.8013458251953125,16698343404,-0.0600582771003246,0.1521831452846527,-0.0011560781858861,fall
0.5837249755859375,-0.2276611328125,-0.7737274169921875,16698343405,0.0089785810559988,0.0235492680221796,0.0505910068750381,fall
0.5260162353515625,-0.239013671875,-0.7501373291015625,16698343406,0.0993409678339958,-0.1763569265604019,-0.0234808251261711,fall
0.5421295166015625,-0.2192230224609375,-0.7144012451171875,16698343408,0.4265329539775848,-0.3713370561599731,0.2018226087093353,fall
0.50640869140625,-0.24578857421875,-0.872650146484375,16698343409,0.0322029441595077,0.0143427206203341,-0.0292716026306152,fall
0.5295562744140625,-0.2221832275390625,-0.9443817138671876,16698343410,0.1059027314186096,-0.0656945928931236,0.0286353733390569,fall
0.481414794921875,-0.2876739501953125,-0.7867584228515625,16698343411,0.06687543541193,0.0117695741355419,-0.0731655582785606,fall
0.429473876953125,-0.3022308349609375,-0.6744384765625,16698343412,-0.1106375679373741,-0.2122770994901657,0.0384294129908084,fall
0.0233612060546875,-0.3739166259765625,-0.8890533447265625,16698343672,0.0915991589426994,-0.0752865001559257,-0.0132630746811628,fall
0.0139923095703125,-0.39642333984375,-0.872955322265625,16698343673,0.0963145494461059,-0.1028755158185958,0.057717889547348,fall
0.007171630859375,-0.40386962890625,-0.9692840576171876,16698343674,-0.1742160022258758,-0.0928308740258216,-0.0439967513084411,fall
-0.00494384765625,-0.4123992919921875,-0.93157958984375,16698343675,-0.0497728809714317,0.0989337712526321,0.0629424825310707,fall
-0.0068817138671875,-0.4333648681640625,-0.8148651123046875,16698343676,0.0535937212407588,0.0158359538763761,0.0792647302150726,fall
0.0310821533203125,-0.3947906494140625,-0.8602447509765625,16698343677,-0.1927401572465896,-0.0069050439633429,-0.0657145678997039,fall
0.01141357421875,-0.3957977294921875,-0.938934326171875,16698343678,-0.3840880095958709,0.1156696081161499,-0.0295552294701337,fall
-0.04150390625,-0.44573974609375,-0.903717041015625,16698343679,-0.3456692397594452,0.0487033575773239,-0.0055175372399389,fall
0.0527801513671875,-0.3486175537109375,-0.7086334228515625,16698343680,-1.98659086227417,-0.4028446674346924,1.081744909286499,fall
0.03875732421875,-0.12420654296875,-0.3417816162109375,16698343681,-1.402314305305481,-4.417174816131592,2.450239896774292,fall
-0.146728515625,-0.6406402587890625,-0.5666046142578125,16698343682,-0.3394129574298858,-1.7040867805480957,0.3910109102725982,fall
-0.371490478515625,-0.9098358154296876,-0.405181884765625,16698343683,0.5398408770561218,-0.5761283040046692,0.0885985717177391,fall
-0.5735321044921875,-1.3354949951171875,-0.274017333984375,16698343684,4.674225807189941,-2.098740577697754,0.2195230424404144,fall
-0.3505096435546875,0.6738739013671875,-0.6623382568359375,16698343685,1.6939879655838013,0.5547596216201782,1.7795151472091677,fall
-3.580062866210937,-1.4249725341796875,-7.864227294921875,16698343686,-3.0356884002685547,11.214365005493164,-0.0245855040848255,fall
-2.0734100341796875,-1.912506103515625,0.0660858154296875,16698343687,2.8688981533050537,-0.8918758630752563,2.8060359954833984,fall
1.514862060546875,-0.360198974609375,-0.8022003173828125,16698343688,-1.242011785507202,2.1434335708618164,-1.7429920434951782,fall
-0.5453033447265625,-0.743072509765625,-1.022613525390625,16698343689,-0.3349670767784118,-0.5634215474128723,0.6710726618766785,fall
-0.4619903564453125,0.0252838134765625,-0.1482086181640625,16698343690,1.557241916656494,-1.2470800876617432,-0.7943767309188843,fall
-0.1347198486328125,-0.542724609375,-1.24761962890625,16698343691,-0.8750755786895752,-1.2525285482406616,-0.9648046493530272,fall
0.318084716796875,-0.3626556396484375,-1.004791259765625,16698343692,-0.3637662231922149,-0.023508520796895,-0.3820157945156097,fall
0.6231231689453125,-0.480224609375,-0.58111572265625,16698343693,0.7418876886367798,0.2483743876218795,0.5749602317810059,fall
-0.7031402587890625,-0.4687652587890625,-1.040985107421875,16698343694,-0.0495180189609527,-0.5842602252960205,0.2417918592691421,fall
-0.08868408203125,-0.537200927734375,-0.8175811767578125,16698343695,0.3445038497447967,-0.8810359835624695,0.0732177570462226,fall
-0.16253662109375,-0.5556182861328125,-0.8940277099609375,16698343696,0.6740420460700989,-0.5764833092689514,-0.0777310132980346,fall
-0.2113494873046875,-0.642486572265625,-0.7559356689453125,16698343697,0.1023277044296264,-0.0644021555781364,-0.2299588918685913,fall
-0.3078155517578125,-0.7007293701171875,-0.8345489501953125,16698343698,0.0236627180129289,0.2366213351488113,-0.4719587564468384,fall
0.013671875,-0.5614013671875,-0.7105712890625,16698343699,-1.2541933059692385,1.2199922800064087,-0.3511542975902557,fall
-0.085174560546875,-0.5341339111328125,-0.9940185546875,16698343700,0.442844808101654,-1.0322768688201904,-0.03174514696002,fall
-0.1099700927734375,-0.5744476318359375,-0.540496826171875,16698343701,0.7667805552482605,-1.6373039484024048,0.0252667404711246,fall
-0.330841064453125,-0.7170257568359375,-0.7207794189453125,16698343702,0.7568570375442505,-1.0532517433166504,-0.0225239507853984,fall
-0.2706146240234375,-0.655517578125,-0.554718017578125,16698343703,-0.1953662931919098,-0.126104936003685,0.1787231415510177,fall
-0.196868896484375,-0.6278839111328125,-0.779815673828125,16698343704,-0.1852042078971862,0.7832684516906738,-0.0120494719594717,fall
-0.2790069580078125,-0.6658172607421875,-0.74859619140625,16698343705,-0.0774718895554542,0.5644221305847168,-0.0102057661861181,fall
-0.236297607421875,-0.6579742431640625,-0.7550048828125,16698343706,-0.1903675496578216,0.3387338519096374,-0.0195100512355566,fall
-0.1878509521484375,-0.63555908203125,-0.7979278564453125,16698343707,0.0959680750966072,-0.1031016185879707,0.0199188478291034,fall
-0.1660003662109375,-0.5946807861328125,-0.816680908203125,16698343708,-0.0765823945403099,-0.0319779068231582,0.0337318629026412,fall
-0.188690185546875,-0.6277923583984375,-0.7430419921875,16698343709,-0.0093690007925033,0.0397069342434406,-0.0122537370771169,fall
-0.203887939453125,-0.6331024169921875,-0.765411376953125,16698343710,-0.0156487338244915,0.0065188854932785,0.0138364536687731,fall
-0.2208099365234375,-0.6199493408203125,-0.6936798095703125,16698343711,-0.1035125404596328,0.0791456848382949,0.0073045180179178,fall
-0.15045166015625,-0.5871734619140625,-0.803680419921875,16698343712,-0.1049767509102821,0.1897017508745193,0.0178945790976285,fall
-0.1172027587890625,-0.57879638671875,-0.7988739013671875,16698343713,0.0350397415459156,0.0315928123891353,-0.0022202774416655,fall
-0.15728759765625,-0.5759429931640625,-0.8840179443359375,16698343715,-0.0060222060419619,-0.1589667499065399,0.0636828392744064,fall
-0.09515380859375,-0.5766143798828125,-0.803009033203125,16698343716,0.1959338188171386,-0.7026140689849854,0.3868710100650787,fall
0.0282440185546875,-0.438568115234375,-0.7688751220703125,16698343717,-0.35490882396698,0.2789999544620514,0.1598003208637237,fall
-0.1800384521484375,-0.5894012451171875,-0.716705322265625,16698343719,-0.1108540818095207,-0.1001987755298614,0.1282844692468643,fall
-0.2494354248046875,-0.609344482421875,-0.71173095703125,16698343720,0.0226853378117084,0.0160548668354749,0.0011065434664487,fall
0.025909423828125,-0.4363861083984375,-0.8612213134765625,16698343977,0.063925452530384,-0.090983435511589,-0.0980274975299835,fall
0.05743408203125,-0.387237548828125,-0.876617431640625,16698343978,-0.0022157500497996,0.0320783071219921,-0.0971414595842361,fall
0.0572662353515625,-0.3900604248046875,-0.911102294921875,16698343979,-0.200017511844635,0.0304101034998893,0.0164807066321373,fall
0.0231475830078125,-0.409637451171875,-0.950836181640625,16698343980,-0.1235469728708267,0.0423511862754821,0.1148578748106956,fall
-0.000152587890625,-0.42462158203125,-0.880340576171875,16698343981,-0.0327169336378574,0.0026594325900077,0.0415969789028167,fall
0.0007476806640625,-0.4141387939453125,-0.842254638671875,16698343982,-0.166260078549385,-0.0675793066620826,-0.103343166410923,fall
-0.002899169921875,-0.3884735107421875,-0.835479736328125,16698343983,-0.2492260634899139,0.1763899475336074,-0.1731965541839599,fall
-0.00909423828125,-0.364227294921875,-0.934661865234375,16698343984,-1.4028358459472656,0.8204637169837952,0.4628536701202392,fall
0.1085968017578125,-0.2568817138671875,-0.4827880859375,16698343985,1.597212791442871,-0.2446811199188232,-1.2467330694198608,fall
0.1519317626953125,-0.2955780029296875,-0.4365692138671875,16698343986,1.977704405784607,-5.296605587005615,-1.852216839790344,fall
0.2042694091796875,-0.58685302734375,-0.332763671875,16698343987,1.4693617820739746,-2.6462185382843018,0.260242223739624,fall
0.4550628662109375,-0.68731689453125,0.183013916015625,16698343988,2.936943769454956,3.01312255859375,2.4404184818267822,fall
0.9487152099609376,-1.1755218505859375,1.13214111328125,16698343989,2.598459243774414,1.57423734664917,3.25984001159668,fall
-0.5760650634765625,-0.0092315673828125,-1.29962158203125,16698343990,-6.502944946289063,-0.9956941604614258,0.6393570899963379,fall
-1.0812835693359375,-0.470794677734375,-3.046630859375,16698343991,3.4830102920532227,1.3821585178375244,3.1542234420776367,fall
-1.70562744140625,-1.0135040283203125,-1.945098876953125,16698343992,2.620059967041016,0.5250962376594543,-0.9432389140129088,fall
1.7565460205078125,0.3381195068359375,-0.6386260986328125,16698343993,-2.15445613861084,-0.8179129362106323,2.2383546829223637,fall
-0.576446533203125,-0.8995208740234375,-0.61053466796875,16698343994,0.0918377786874771,1.121492862701416,-0.0138505678623914,fall
0.0443115234375,-0.540557861328125,-0.81060791015625,16698343995,0.8095293045043945,-1.0054101943969729,1.1098535060882568,fall
-0.061859130859375,-0.70855712890625,-0.389190673828125,16698343996,0.2807341814041137,-0.5151187181472778,0.487345427274704,fall
-0.9521026611328124,-0.79669189453125,-1.1288604736328125,16698343997,0.163793459534645,0.0298305992037057,-0.3696707189083099,fall
-0.19024658203125,-0.5494537353515625,-0.4488372802734375,16698343998,-0.2330958396196365,-0.0348051190376281,-0.2573460340499878,fall
-0.3928985595703125,-0.749908447265625,-0.6504974365234375,16698343999,-0.0718709975481033,0.3960458636283874,-0.0562038831412792,fall
-0.2489471435546875,-0.6508331298828125,-0.83990478515625,16698344000,-0.0723956376314163,-0.0229372736066579,-0.1420333087444305,fall
-0.1367645263671875,-0.702392578125,-0.7403106689453125,16698344001,-0.0816397368907928,-0.1833655685186386,-0.0854405984282493,fall
-0.2186126708984375,-0.668121337890625,-0.76019287109375,16698344002,0.1042704805731773,-0.1846172511577606,-0.1015764251351356,fall
-0.2472686767578125,-0.7019805908203125,-0.6874237060546875,16698344003,-0.0171267893165349,-0.0714384987950325,-0.0287008862942457,fall
-0.24737548828125,-0.671112060546875,-0.64959716796875,16698344004,0.0110593093559145,-0.0584060512483119,0.0094928378239274,fall
-0.27044677734375,-0.659027099609375,-0.7034759521484375,16698344005,-0.0256489049643278,0.003753192955628,0.0208293814212083,fall
-0.266510009765625,-0.6227264404296875,-0.733184814453125,16698344006,-0.0252733994275331,0.0355721078813076,0.0449717342853546,fall
-0.276763916015625,-0.68878173828125,-0.6641082763671875,16698344007,-0.2619876861572265,0.1736927032470703,-0.2209251970052719,fall
-0.249542236328125,-0.6710357666015625,-0.7057037353515625,16698344008,0.0565508939325809,-0.0146673591807484,0.0064200824126601,fall
-0.243408203125,-0.68096923828125,-0.6643829345703125,16698344009,0.0111743574962019,0.0065953182056546,-0.0344083085656166,fall
-0.275787353515625,-0.6759185791015625,-0.571746826171875,16698344010,-0.0278297662734985,0.1353066861629486,0.0008082693675532,fall
-0.23675537109375,-0.6818084716796875,-0.7045135498046875,16698344011,-0.0639129355549812,0.064682587981224,0.0131437648087739,fall
-0.2276458740234375,-0.654266357421875,-0.69683837890625,16698344012,0.1150014176964759,-0.0843460410833358,-0.0235671121627092,fall
-0.2678070068359375,-0.641815185546875,-0.710205078125,16698344013,-0.3540818989276886,-0.1101227775216102,-0.2402818500995636,fall
-0.3072509765625,-0.6786956787109375,-0.72296142578125,16698344014,0.1769350916147232,-0.1690542697906494,0.0966684892773628,fall
-0.2654571533203125,-0.6736907958984375,-0.6937408447265625,16698344015,0.0515039376914501,-0.115908496081829,0.0419301390647888,fall
-0.060800764709711,-0.0439970195293426,0.0474079959094524,16698344298,-0.060800764709711,-0.0439970195293426,0.0474079959094524,fall
0.0280454829335212,-0.0945536717772483,-0.0374906510114669,16698344299,0.0280454829335212,-0.0945536717772483,-0.0374906510114669,fall
-0.1284770220518112,-0.1022930815815925,-0.0691236779093742,16698344300,-0.1284770220518112,-0.1022930815815925,-0.0691236779093742,fall
-0.1081139519810676,-0.129797950387001,-0.1609348207712173,16698344301,-0.1081139519810676,-0.129797950387001,-0.1609348207712173,fall
0.0094795217737555,0.0508914105594158,0.016809606924653,16698344302,0.0094795217737555,0.0508914105594158,0.016809606924653,fall
0.124297447502613,0.0642189309000969,0.0768231451511383,16698344303,0.124297447502613,0.0642189309000969,0.0768231451511383,fall
0.1620384305715561,-0.0213420409709215,-0.0143991792574524,16698344304,0.1620384305715561,-0.0213420409709215,-0.0143991792574524,fall
-0.1302264481782913,-0.4234463274478912,-0.0125365648418664,16698344305,-0.1302264481782913,-0.4234463274478912,-0.0125365648418664,fall
-0.3173204362392425,0.2142699509859085,-0.1496792435646057,16698344306,-0.3173204362392425,0.2142699509859085,-0.1496792435646057,fall
-0.1569720357656479,-0.2898499369621277,0.1430434435606002,16698344307,-0.1569720357656479,-0.2898499369621277,0.1430434435606002,fall
-1.474326252937317,-0.1872047781944275,1.5120911598205566,16698344308,-1.474326252937317,-0.1872047781944275,1.5120911598205566,fall
0.4676620066165924,-3.77929949760437,1.372058987617493,16698344309,0.4676620066165924,-3.77929949760437,1.372058987617493,fall
1.9637292623519895,-3.0592682361602783,-0.325397789478302,16698344310,1.9637292623519895,-3.0592682361602783,-0.325397789478302,fall
0.0971103012561798,1.5935863256454468,0.2880714833736419,16698344311,0.0971103012561798,1.5935863256454468,0.2880714833736419,fall
3.810924530029297,-1.6296734809875488,1.6072139739990234,16698344312,3.810924530029297,-1.6296734809875488,1.6072139739990234,fall
0.4582594335079193,1.5553795099258425,1.9236958026885984,16698344313,0.4582594335079193,1.5553795099258425,1.9236958026885984,fall
-0.0096675409004092,1.3468220233917236,0.2126203924417495,16698344314,-0.0096675409004092,1.3468220233917236,0.2126203924417495,fall
1.9701114892959597,3.972160577774048,-1.708128571510315,16698344315,1.9701114892959597,3.972160577774048,-1.708128571510315,fall
-3.627758741378784,1.3049843311309814,0.6112650036811829,16698344316,-3.627758741378784,1.3049843311309814,0.6112650036811829,fall
0.3417477607727051,0.5078784227371216,1.0784462690353394,16698344317,0.3417477607727051,0.5078784227371216,1.0784462690353394,fall
-0.31209397315979,1.710060477256775,0.2651256620883941,16698344318,-0.31209397315979,1.710060477256775,0.2651256620883941,fall
0.4773324728012085,-0.9074074029922484,-0.6588655114173889,16698344319,0.4773324728012085,-0.9074074029922484,-0.6588655114173889,fall
-0.524893581867218,-0.5661227703094482,-0.6311593055725098,16698344320,-0.524893581867218,-0.5661227703094482,-0.6311593055725098,fall
0.0607970394194126,-0.1688103228807449,0.1608743667602539,16698344321,0.0607970394194126,-0.1688103228807449,0.1608743667602539,fall
0.9856089949607848,-0.3174107074737549,-0.4352694451808929,16698344322,0.9856089949607848,-0.3174107074737549,-0.4352694451808929,fall
0.1705309897661209,-0.2336489707231521,-0.1263028085231781,16698344323,0.1705309897661209,-0.2336489707231521,-0.1263028085231781,fall
-0.2502950727939605,0.3244611620903015,0.0142039693892002,16698344324,-0.2502950727939605,0.3244611620903015,0.0142039693892002,fall
0.0379830673336982,-0.3641790151596069,-0.2276091873645782,16698344325,0.0379830673336982,-0.3641790151596069,-0.2276091873645782,fall
0.7938483953475952,-1.3303426504135132,-0.0738960653543472,16698344326,0.7938483953475952,-1.3303426504135132,-0.0738960653543472,fall
0.1208230927586555,-0.2619690299034118,-0.1222923547029495,16698344327,0.1208230927586555,-0.2619690299034118,-0.1222923547029495,fall
0.0619464591145515,-0.1715741455554962,-0.1403086483478546,16698344328,0.0619464591145515,-0.1715741455554962,-0.1403086483478546,fall
-0.431606262922287,0.937774896621704,-0.0275482703000307,16698344329,-0.431606262922287,0.937774896621704,-0.0275482703000307,fall
-0.2510071992874145,1.534408450126648,0.0212762597948312,16698344330,-0.2510071992874145,1.534408450126648,0.0212762597948312,fall
0.0919115468859672,-0.1048366650938987,0.0106246806681156,16698344331,0.0919115468859672,-0.1048366650938987,0.0106246806681156,fall
-0.0866864249110221,-0.0436840988695621,-0.0157549940049648,16698344332,-0.0866864249110221,-0.0436840988695621,-0.0157549940049648,fall
-0.1847490817308426,-0.1575419604778289,0.0417325347661972,16698344333,-0.1847490817308426,-0.1575419604778289,0.0417325347661972,fall
0.0711697861552238,0.0402366369962692,0.0139507027342915,16698344334,0.0711697861552238,0.0402366369962692,0.0139507027342915,fall
-0.0252888444811105,0.0632455497980117,-0.0124121950939297,16698344335,-0.0252888444811105,0.0632455497980117,-0.0124121950939297,fall
-0.0953797847032547,0.0719186663627624,-0.0245093367993831,16698344336,-0.0953797847032547,0.0719186663627624,-0.0245093367993831,fall
-0.2622324228286743,0.1779969036579132,-0.0322937592864036,16698344337,-0.2622324228286743,0.1779969036579132,-0.0322937592864036,fall
0.0956527590751648,0.0325984247028827,0.0439560078084468,16698344338,0.0956527590751648,0.0325984247028827,0.0439560078084468,fall
0.0543958656489849,-0.0060214069671928,0.0090819122269749,16698344339,0.0543958656489849,-0.0060214069671928,0.0090819122269749,fall
0.0476910881698131,-0.0523753240704536,-0.000409327854868,16698344340,0.0476910881698131,-0.0523753240704536,-0.000409327854868,fall
-0.1630403250455856,-0.1013010516762733,0.1211346834897995,16698344341,-0.1630403250455856,-0.1013010516762733,0.1211346834897995,fall
0.26136314868927,-0.2105407267808914,0.3762636482715606,16698344342,0.26136314868927,-0.2105407267808914,0.3762636482715606,fall
0.2247052788734436,-0.1942507028579712,0.1443891376256942,16698344343,0.2247052788734436,-0.1942507028579712,0.1443891376256942,fall
0.4133042097091675,-0.7926294207572937,0.4409472942352295,16698344344,0.4133042097091675,-0.7926294207572937,0.4409472942352295,fall
0.635619580745697,-1.231797218322754,0.2248120754957199,16698344345,0.635619580745697,-1.231797218322754,0.2248120754957199,fall
0.3670712113380432,-1.0400331020355225,0.1489540636539459,16698344346,0.3670712113380432,-1.0400331020355225,0.1489540636539459,fall
0.1372422724962234,-0.4714820384979248,0.0546720325946807,16698344347,0.2650399208068847,-0.2502974569797516,-0.0168109387159347,fall
0.097320556640625,-0.2814178466796875,-0.88079833984375,16698344553,1.271547555923462,0.2016478925943374,0.454316645860672,fall
0.1162872314453125,-0.36358642578125,-0.8624420166015625,16698344554,-0.0843982398509979,0.3664166033267975,-0.0670322999358177,fall
0.10015869140625,-0.4227294921875,-0.82940673828125,16698344555,0.7002022862434387,0.1130722239613533,0.1148466914892196,fall
0.1533966064453125,-0.4625396728515625,-0.845703125,16698344556,-0.0878446325659751,-0.264272391796112,-0.0607576221227645,fall
0.0872039794921875,-0.45751953125,-0.88519287109375,16698344557,-0.4327567517757416,-0.1684390753507614,-0.3081170916557312,fall
0.1022491455078125,-0.414154052734375,-0.796630859375,16698344558,0.2516199946403503,-0.2118872255086898,-0.086586557328701,fall
0.1557159423828125,-0.4227294921875,-0.8829498291015625,16698344559,-0.3355289995670318,0.4943239688873291,-0.1432873904705047,fall
0.1553955078125,-0.4267730712890625,-0.89471435546875,16698344560,0.0983097925782203,-0.0029483856633305,-0.0785134509205818,fall
0.150360107421875,-0.4396820068359375,-0.9371337890625,16698344561,-0.0162279717624187,-0.1925766319036483,0.0160109251737594,fall
0.1077117919921875,-0.4484710693359375,-0.8525390625,16698344562,0.1206854060292244,-0.1499143987894058,0.087145023047924,fall
0.1099395751953125,-0.4452362060546875,-0.820770263671875,16698344563,-0.18731290102005,0.116725817322731,0.1241650879383087,fall
0.11181640625,-0.4445343017578125,-0.8163909912109375,16698344564,-0.0116092516109347,-0.5706296563148499,0.0336391851305961,fall
0.0805511474609375,-0.4872589111328125,-0.8833465576171875,16698344565,-1.832036137580872,-1.933607578277588,0.5310649275779724,fall
0.062652587890625,-0.33538818359375,-0.7171478271484375,16698344566,2.580413341522217,-3.182917594909668,0.127352088689804,fall
-0.199310302734375,-0.2269439697265625,-0.7272796630859375,16698344567,0.1107536777853965,-2.080716609954834,-0.3801020681858063,fall
0.147186279296875,-1.1410064697265625,-0.4234466552734375,16698344568,-0.8605198264122009,0.2580302059650421,1.6500407457351685,fall
0.465850830078125,-0.9097442626953124,-0.0374908447265625,16698344569,1.9571900367736816,0.9631484746932985,3.235548257827759,fall
0.3176422119140625,-1.2400970458984375,-0.30517578125,16698344570,4.359241962432861,1.7779593467712402,1.6167420148849487,fall
-0.56201171875,0.7745208740234375,-1.8986053466796875,16698344571,-4.551570892333984,7.297823905944824,-0.5446984767913818,fall
-1.112548828125,-0.57867431640625,-2.714447021484375,16698344572,1.5511959791183472,0.3552473187446594,3.5286381244659424,fall
-0.207855224609375,-1.36590576171875,-1.316131591796875,16698344573,0.5218583941459656,-1.209060788154602,-1.6662378311157229,fall
0.5652313232421875,-0.0843963623046875,-1.757232666015625,16698344574,0.594901978969574,0.4339562356472015,0.3899890482425689,fall
-0.0045013427734375,-0.605133056640625,-0.6560516357421875,16698344575,-0.7850269079208374,-0.010080331005156,-0.5575678944587708,fall
-0.0738372802734375,-0.4916534423828125,-0.3979339599609375,16698344576,0.1931947618722915,-1.5194129943847656,-1.075092077255249,fall
-0.043609619140625,0.16436767578125,-1.0520172119140625,16698344577,-0.7062618136405945,-1.056198000907898,1.3610388040542605,fall
-0.5754852294921875,-1.778961181640625,-0.3040008544921875,16698344578,-0.1030089408159256,1.1181654930114746,-0.0840288549661636,fall
-0.124542236328125,-0.43072509765625,-0.771392822265625,16698344579,-0.4734202921390533,-0.1665098816156387,-0.0216853208839893,fall
-0.21075439453125,-0.7432708740234375,-0.6508941650390625,16698344580,-0.4838124811649322,-0.1077994331717491,-0.043105125427246,fall
-0.1910858154296875,-0.419097900390625,-0.814727783203125,16698344581,-0.3226896226406097,-0.1143755763769149,0.0942362174391746,fall
-0.20245361328125,-0.569549560546875,-0.7435150146484375,16698344582,0.0976224318146705,-0.0097727356478571,0.0288644041866064,fall
-0.2068939208984375,-0.59295654296875,-0.8443145751953125,16698344583,0.2179387211799621,-0.0438699871301651,-0.0299752093851566,fall
-0.2164154052734375,-0.6206207275390625,-0.78338623046875,16698344584,-0.0744595900177955,0.0938383415341377,-0.0515726469457149,fall
-0.1501922607421875,-0.612823486328125,-0.7177886962890625,16698344585,0.0253706034272909,0.1442836821079254,-0.1138597205281257,fall
-0.1733551025390625,-0.5980682373046875,-0.7998504638671875,16698344586,-0.1615534722805023,0.4985107183456421,-0.0771645605564117,fall
-0.1271514892578125,-0.57135009765625,-0.798675537109375,16698344587,0.0193222984671592,0.1477071642875671,0.0629467442631721,fall
-0.0945281982421875,-0.5967864990234375,-0.7772979736328125,16698344588,-0.0523678660392761,0.0028754149097949,-0.0194999314844608,fall
-0.11053466796875,-0.6244964599609375,-0.8639678955078125,16698344589,0.0004380900063551,-0.1472557634115219,0.0589908808469772,fall
-0.0982666015625,-0.5536651611328125,-0.8191070556640625,16698344590,0.2426235675811767,-0.2307173609733581,0.0813467875123024,fall
-0.094940185546875,-0.5108795166015625,-0.8197479248046875,16698344591,0.9506664872169496,-0.7913748025894165,0.5403265953063965,fall
-0.282958984375,-0.6903076171875,-0.608978271484375,16698344592,1.3233282566070557,-1.2275886535644531,0.4878500998020172,fall
-0.369659423828125,-0.7253570556640625,-0.5328216552734375,16698344593,0.2028921246528625,-0.5340636372566223,0.2047571390867233,fall
-0.38629150390625,-0.7219085693359375,-0.565399169921875,16698344594,0.2595596611499786,-0.3355005085468292,0.14007668197155,fall
-0.0949395596981048,0.1556678861379623,0.1060286983847618,16698345105,-0.0949395596981048,0.1556678861379623,0.1060286983847618,fall
-0.0400062724947929,0.095965676009655,0.044837512075901,16698345106,-0.0400062724947929,0.095965676009655,0.044837512075901,fall
0.063352070748806,0.1031956300139427,0.0290060844272375,16698345107,0.063352070748806,0.1031956300139427,0.0290060844272375,fall
0.1402953267097473,0.0090592745691537,0.0443514846265316,16698345108,0.1402953267097473,0.0090592745691537,0.0443514846265316,fall
0.0060610882937908,-0.1005170196294784,-0.035319373011589,16698345109,0.0060610882937908,-0.1005170196294784,-0.035319373011589,fall
-0.1395357847213745,-0.0623230300843715,-0.062849536538124,16698345110,-0.1395357847213745,-0.0623230300843715,-0.062849536538124,fall
-0.0598241835832595,-0.02545609138906,0.0568113513290882,16698345111,-0.0598241835832595,-0.02545609138906,0.0568113513290882,fall
-0.0343891307711601,0.013522733002901,0.033621609210968,16698345112,-0.0343891307711601,0.013522733002901,0.033621609210968,fall
-0.1258319616317749,-0.1184683218598365,-0.0082595273852348,16698345113,-0.1258319616317749,-0.1184683218598365,-0.0082595273852348,fall
-0.7963589429855347,-1.032223343849182,0.8860371708869934,16698345114,-0.7963589429855347,-1.032223343849182,0.8860371708869934,fall
-1.932856559753418,-5.424605369567871,1.4990800619125366,16698345115,-1.932856559753418,-5.424605369567871,1.4990800619125366,fall
2.982221364974976,0.6284668445587158,1.9731405973434448,16698345116,2.982221364974976,0.6284668445587158,1.9731405973434448,fall
-0.7926297187805176,1.6667300462722778,2.229655265808105,16698345117,-0.7926297187805176,1.6667300462722778,2.229655265808105,fall
3.605269908905029,-0.1342294365167617,0.827638566493988,16698345118,3.605269908905029,-0.1342294365167617,0.827638566493988,fall
2.8148112297058105,1.394154667854309,0.494625985622406,16698345119,2.8148112297058105,1.394154667854309,0.494625985622406,fall
-1.879125952720642,9.943199157714844,0.5514035224914551,16698345120,-1.879125952720642,9.943199157714844,0.5514035224914551,fall
2.5773463249206543,-0.5092658996582031,1.4013268947601318,16698345121,2.5773463249206543,-0.5092658996582031,1.4013268947601318,fall
-2.732826471328736,-1.7746319770812988,-0.6406505703926086,16698345122,-2.732826471328736,-1.7746319770812988,-0.6406505703926086,fall
-0.725210428237915,0.5105359554290771,0.096669815480709,16698345123,-0.725210428237915,0.5105359554290771,0.096669815480709,fall
-0.9005156755447388,1.0637805461883545,1.330191969871521,16698345124,-0.9005156755447388,1.0637805461883545,1.330191969871521,fall
-0.0851069018244743,1.5765862464904783,0.9262802004814148,16698345125,-0.0851069018244743,1.5765862464904783,0.9262802004814148,fall
-0.003795270808041,0.5061095356941223,0.2692048251628876,16698345126,-0.003795270808041,0.5061095356941223,0.2692048251628876,fall
-0.5604467988014221,0.0386310145258903,0.1818315833806991,16698345127,-0.5604467988014221,0.0386310145258903,0.1818315833806991,fall
-0.1952139735221862,-0.0598140656948089,0.188509464263916,16698345128,-0.1952139735221862,-0.0598140656948089,0.188509464263916,fall
-0.0833580046892166,0.4642702043056488,0.1511857956647873,16698345129,-0.0833580046892166,0.4642702043056488,0.1511857956647873,fall
0.372654527425766,-0.9634459018707277,-0.0923682823777198,16698345130,0.372654527425766,-0.9634459018707277,-0.0923682823777198,fall
0.0318037346005439,-0.0526166073977947,-0.2943218946456909,16698345131,0.0318037346005439,-0.0526166073977947,-0.2943218946456909,fall
-0.180644616484642,0.2617456018924713,-0.0101301316171884,16698345132,-0.180644616484642,0.2617456018924713,-0.0101301316171884,fall
-0.2478625327348709,0.1054582521319389,0.0771685540676117,16698345133,-0.2478625327348709,0.1054582521319389,0.0771685540676117,fall
-0.1204270794987678,0.6882513761520386,0.2181238085031509,16698345134,-0.1204270794987678,0.6882513761520386,0.2181238085031509,fall
0.1410452723503112,0.1835618317127227,0.3708230853080749,16698345135,0.1410452723503112,0.1835618317127227,0.3708230853080749,fall
-0.0343875363469123,0.5777429938316345,0.1553411185741424,16698345136,-0.0343875363469123,0.5777429938316345,0.1553411185741424,fall
0.0249096099287271,-0.1324975937604904,0.1601326763629913,16698345137,0.0249096099287271,-0.1324975937604904,0.1601326763629913,fall
-0.0011249192757532,0.0371652133762836,-0.1154267266392707,16698345138,-0.0011249192757532,0.0371652133762836,-0.1154267266392707,fall
-0.0322460867464542,0.0852698907256126,-0.063033826649189,16698345139,-0.0322460867464542,0.0852698907256126,-0.063033826649189,fall
0.0320615284144878,-0.0857625752687454,0.0407037548720836,16698345140,0.0320615284144878,-0.0857625752687454,0.0407037548720836,fall
-0.3015555739402771,0.4589968621730804,0.0739527866244316,16698345141,-0.3015555739402771,0.4589968621730804,0.0739527866244316,fall
-0.1038624793291091,0.1709722727537155,-0.0418507754802703,16698345142,-0.1038624793291091,0.1709722727537155,-0.0418507754802703,fall
0.0202621277421712,7.98948312876e-05,0.0455368570983409,16698345143,0.0202621277421712,7.98948312876e-05,0.0455368570983409,fall
-0.0366964936256408,0.079943299293518,-0.0117501327767968,16698345144,-0.0366964936256408,0.079943299293518,-0.0117501327767968,fall
-0.0721154734492302,-0.1038952395319938,-0.0134026240557432,16698345145,-0.0721154734492302,-0.1038952395319938,-0.0134026240557432,fall
0.0369617454707622,-0.0818626433610916,0.1755667626857757,16698345146,0.0369617454707622,-0.0818626433610916,0.1755667626857757,fall
0.181280568242073,0.0856549814343452,0.1236146166920661,16698345147,0.181280568242073,0.0856549814343452,0.1236146166920661,fall
0.1927028745412826,0.0413602218031883,0.0307760220021009,16698345148,0.1927028745412826,0.0413602218031883,0.0307760220021009,fall
0.2000265717506408,-0.4029335975646972,-0.0139776011928915,16698345149,0.2000265717506408,-0.4029335975646972,-0.0139776011928915,fall
0.159329742193222,-0.4536604285240173,-0.0032400018535554,16698345150,0.159329742193222,-0.4536604285240173,-0.0032400018535554,fall
0.6590772271156311,-1.145640254020691,0.0450790598988533,16698345151,0.0732084363698959,-0.0295890513807535,0.0369769260287284,fall
-0.039703369140625,-0.37396240234375,-0.900726318359375,16698346059,0.0269261561334133,-0.092273473739624,-0.0820352137088775,fall
-0.044158935546875,-0.397430419921875,-0.937225341796875,16698346060,0.0405354425311088,0.0002356897603021,-0.0160205122083425,fall
-0.0477142333984375,-0.4123687744140625,-0.9277801513671876,16698346061,-0.0278955474495887,-0.1070228591561317,-7.7764299931e-05,fall
-0.0393524169921875,-0.404266357421875,-0.896820068359375,16698346062,0.0103261405602097,-0.0131197962909936,-0.021973742172122,fall
-0.0193939208984375,-0.4033050537109375,-0.87274169921875,16698346063,0.0392611175775527,-0.0125932898372411,-0.0324189253151416,fall
-0.026947021484375,-0.413482666015625,-0.8639678955078125,16698346064,-0.0427248254418373,0.022914370521903,-0.0299839973449707,fall
-0.0392303466796875,-0.4142913818359375,-0.8699493408203125,16698346065,-0.1954009234905243,0.0744092538952827,-0.0173339825123548,fall
-0.076141357421875,-0.4239501953125,-0.831512451171875,16698346066,-0.2023938447237014,0.118385761976242,-0.0854810774326324,fall
-0.1283416748046875,-0.3656768798828125,-0.75653076171875,16698346067,-0.5517939329147339,-0.3774897754192352,-0.1902109533548355,fall
-0.2769622802734375,-0.446990966796875,-0.5728302001953125,16698346068,-0.5331709980964661,-0.3113837242126465,1.435773253440857,fall
0.0049896240234375,-0.269195556640625,-0.23919677734375,16698346069,2.437571287155152,-2.6121721267700195,0.1633939892053604,fall
0.3802947998046875,-0.361663818359375,0.05279541015625,16698346070,-1.041570782661438,-0.4335533082485199,1.1310641765594482,fall
0.30255126953125,-1.3271484375,-0.6562957763671875,16698346071,-1.3546264171600342,1.1649247407913208,3.077092170715332,fall
-0.037689208984375,-0.355133056640625,-1.63861083984375,16698346072,3.3479018211364746,1.9004815816879272,1.7416410446166992,fall
-1.6063690185546875,1.5719146728515625,-6.4915618896484375,16698346073,-2.271455764770508,8.627656936645508,-2.376562118530273,fall
-0.5070343017578125,-0.95111083984375,-1.714874267578125,16698346075,1.0935688018798828,-0.2938989996910095,0.2922275960445404,fall
-0.143951416015625,-0.898590087890625,-0.2712860107421875,16698346076,-1.6690592765808103,1.2777003049850464,0.442508727312088,fall
-0.15924072265625,-0.1832122802734375,-1.0294189453125,16698346077,-0.8011677861213684,0.6213162541389465,0.3314943015575409,fall
0.4293365478515625,-0.208984375,-0.7178192138671875,16698346078,-0.1585731357336044,0.3288652300834656,0.7614408731460571,fall
0.524810791015625,0.370330810546875,-1.2928314208984375,16698346079,0.7901777029037476,1.467035889625549,2.256142854690552,fall
0.081573486328125,-0.441070556640625,-0.5999755859375,16698346080,-1.778056502342224,1.0232738256454468,2.585343599319458,fall
0.074859619140625,-1.011260986328125,-1.079833984375,16698346081,-0.3007169663906097,0.8390254378318787,0.5374067425727844,fall
0.274383544921875,-0.2760009765625,-0.43182373046875,16698346082,-0.8930923938751221,0.5791293978691101,0.0075881448574364,fall
0.4397430419921875,-0.214813232421875,-1.144012451171875,16698346083,0.3940658271312713,0.2068857997655868,0.594745934009552,fall
0.2792205810546875,-0.3639678955078125,-0.5364532470703125,16698346084,0.1926658600568771,-1.4050095081329346,-0.4964792728424072,fall
0.351409912109375,-0.3682708740234375,-1.3071746826171875,16698346085,-0.1112876385450363,-0.0404757857322692,-0.0587152428925037,fall
0.45599365234375,-0.4303131103515625,-0.9664459228515624,16698346086,-0.1945079565048217,-0.0468607172369957,-0.2431980073451995,fall
0.3506317138671875,-0.2828369140625,-0.8841552734375,16698346087,0.4249078929424286,-0.1186278462409973,-0.1109161302447319,fall
0.3948822021484375,-0.2029266357421875,-0.687408447265625,16698346088,0.0380270108580589,0.944950520992279,-0.0470817573368549,fall
0.4093017578125,-0.2388153076171875,-0.802581787109375,16698346089,-0.3002474308013916,2.024793863296509,0.0064512412063777,fall
0.6054229736328125,-0.3836212158203125,-0.7861328125,16698346090,-0.0951054766774177,1.2006139755249023,0.0262971185147762,fall
0.707366943359375,-0.3416595458984375,-0.7095184326171875,16698346091,0.1235752031207084,0.3457997441291809,-0.0307086445391178,fall
0.6823272705078125,-0.295745849609375,-0.5419769287109375,16698346092,0.0034772893413901,0.3122047781944275,-0.0928886607289314,fall
0.76898193359375,-0.2764129638671875,-0.562042236328125,16698346093,-0.1408601850271225,-0.0742428079247474,0.0296146180480718,fall
0.7026519775390625,-0.3393707275390625,-0.68682861328125,16698346094,0.0277653187513351,0.054576426744461,-0.1626155376434326,fall
0.7381439208984375,-0.3265838623046875,-0.639739990234375,16698346095,-0.0586848855018615,0.1508212089538574,-0.137965589761734,fall
0.7352294921875,-0.294281005859375,-0.625274658203125,16698346096,-0.2146768867969513,0.264161616563797,-0.0043452135287225,fall
0.7441864013671875,-0.2691802978515625,-0.6350555419921875,16698346097,-0.1503058820962906,0.3044837415218353,0.0888419896364212,fall
0.782867431640625,-0.2904815673828125,-0.61676025390625,16698346098,0.0153901418671011,0.0211473628878593,0.0705311596393585,fall
0.7154998779296875,-0.3137664794921875,-0.597381591796875,16698346099,-0.0221255421638488,-0.126493752002716,-0.064536914229393,fall
0.7364349365234375,-0.268035888671875,-0.7075042724609375,16698346100,-0.0806351900100708,0.0198144502937793,0.005870406050235,fall
0.719696044921875,-0.2809600830078125,-0.63623046875,16698346101,0.0309856124222278,-0.0134737305343151,0.0177686102688312,fall
0.706207275390625,-0.3012542724609375,-0.6340179443359375,16698346102,0.0897253602743148,-0.2012753188610077,0.2115716338157653,fall
0.7568511962890625,-0.3016815185546875,-0.6469268798828125,16698346103,0.4288080930709839,-0.5453400015830994,0.4943756461143493,fall
0.5967559814453125,-0.393646240234375,-0.6156463623046875,16698346104,0.258188933134079,-0.5100555419921875,0.0261828675866127,fall
0.6309661865234375,-0.377288818359375,-0.65142822265625,16698346105,0.1259462088346481,-0.3805872797966003,0.0115530593320727,fall
0.6601104736328125,-0.3669586181640625,-0.6807708740234375,16698346106,-0.1407288908958435,0.1468847841024398,0.1187149286270141,fall
-0.0135345458984375,-0.432281494140625,-0.9079132080078124,16698346391,-0.0011861718958243,-0.039047535508871,0.0472804307937622,fall
-0.001556396484375,-0.4168548583984375,-0.864044189453125,16698346392,0.0852302089333534,-0.1090455278754234,-0.0417903251945972,fall
0.004119873046875,-0.39642333984375,-0.895233154296875,16698346393,0.0494620911777019,-0.00846379250288,-0.1184411570429802,fall
-0.0095062255859375,-0.3903656005859375,-0.932098388671875,16698346394,-0.0795518159866333,0.0182996448129415,-0.0724616795778274,fall
-0.0332794189453125,-0.4215850830078125,-0.89788818359375,16698346395,0.0004250405181664,-0.1050539836287498,0.0957467630505561,fall
-0.046173095703125,-0.433074951171875,-0.883514404296875,16698346396,-0.0127597376704216,-0.0632532685995101,-0.0662117749452591,fall
-0.0234527587890625,-0.4055633544921875,-0.88897705078125,16698346397,-0.1326901316642761,-0.0273005962371826,-0.1205304116010665,fall
-0.0389862060546875,-0.4053192138671875,-0.8981781005859375,16698346398,-0.1342688649892807,0.030543528497219,-0.0297890547662973,fall
-0.069549560546875,-0.4449005126953125,-0.847625732421875,16698346399,-0.1438237428665161,0.2533819377422333,-0.0797438323497772,fall
-0.2158050537109375,-0.6080169677734375,-0.944091796875,16698346400,-0.5207675695419312,2.64597749710083,-0.1975975036621093,fall
0.386322021484375,-0.2092437744140625,-1.14239501953125,16698346401,4.18727445602417,-2.463438034057617,-1.0219569206237793,fall
0.2991790771484375,-0.54559326171875,-0.263885498046875,16698346402,1.2307265996932983,-3.784601449966431,0.4508686363697052,fall
-0.2035064697265625,0.01983642578125,-0.42071533203125,16698346403,-0.6985673904418945,0.7354753613471985,1.40558660030365,fall
0.0737152099609375,-1.147216796875,-0.1383056640625,16698346404,-0.0376011729240417,-0.4362678527832031,2.8956499099731445,fall
0.665557861328125,-1.4177703857421875,-0.4621734619140625,16698346405,2.274505853652954,0.9213091135025024,3.457010269165039,fall
-0.5247650146484375,0.3214263916015625,-1.83392333984375,16698346406,2.720527410507202,0.863217830657959,1.086454153060913,fall
-1.9618682861328125,0.575775146484375,-4.432418823242188,16698346407,-6.192907333374023,11.734030723571776,-1.5396969318389893,fall
-0.4776763916015625,-1.2378997802734375,-1.493408203125,16698346408,0.1391118168830871,1.6481579542160034,3.050856828689575,fall
0.62847900390625,-0.6210174560546875,-0.5881500244140625,16698346409,0.9865789413452148,0.4983296394348144,-1.3863435983657837,fall
-0.410064697265625,-0.41705322265625,-0.5341644287109375,16698346410,-1.1426159143447876,0.796783447265625,0.3399421274662018,fall
0.5615692138671875,0.6273345947265625,-0.7469940185546875,16698346411,-0.4990827739238739,0.6529823541641235,-3.2406022548675537,fall
-0.414703369140625,-1.2430572509765625,-0.311737060546875,16698346412,1.42337167263031,0.3138774931430816,0.2481536120176315,fall
0.541656494140625,-0.6089935302734375,-0.7918701171875,16698346413,-0.989026665687561,-0.6380428075790405,-1.0116506814956665,fall
0.1045074462890625,-0.3820037841796875,-0.9207611083984376,16698346414,-0.969224452972412,-0.3985926508903503,-0.1814717948436737,fall
-0.1608734130859375,-0.415069580078125,-0.70086669921875,16698346415,0.4611236751079559,-0.9007218480110168,-0.26939657330513,fall
-0.2713623046875,-0.7936248779296875,-0.9432525634765624,16698346416,1.0088828802108765,-0.7089366912841797,-0.0696853399276733,fall
-0.2280120849609375,-0.7667083740234375,-0.6791839599609375,16698346417,0.1283880621194839,-0.2370719313621521,-0.3146223723888397,fall
-0.0807037353515625,-0.63677978515625,-0.68963623046875,16698346418,-0.103995107114315,-0.3524083793163299,-0.3319883346557617,fall
-0.1634063720703125,-0.7144012451171875,-0.8400421142578125,16698346419,0.1175175756216049,-0.2912392914295196,0.1242119595408439,fall
-0.194976806640625,-0.60772705078125,-0.7406463623046875,16698346420,-0.9765044450759888,1.7283332347869873,0.2239609211683273,fall
0.0362701416015625,-0.61981201171875,-0.73028564453125,16698346421,0.05890379473567,0.8366861343383789,0.3316021561622619,fall
-0.0191802978515625,-0.5953521728515625,-0.825286865234375,16698346422,-0.0563618093729019,-0.136297658085823,0.0229684319347143,fall
-0.0577392578125,-0.60137939453125,-0.8316497802734375,16698346423,0.0255026966333389,-0.1137329563498497,0.0323137305676937,fall
-0.018798828125,-0.595947265625,-0.958892822265625,16698346424,0.0737093761563301,-0.1155106201767921,0.068990521132946,fall
0.00567626953125,-0.5882415771484375,-0.835113525390625,16698346425,0.1833975166082382,-0.0917941033840179,0.0130979586392641,fall
0.0015106201171875,-0.5616302490234375,-0.7738494873046875,16698346426,0.4892533123493194,-0.2293085604906082,-0.0192810203880071,fall
-0.055999755859375,-0.607666015625,-0.7698211669921875,16698346427,0.5499067902565002,-0.9157034158706664,-0.0915653333067894,fall
-0.123870849609375,-0.670440673828125,-0.6076202392578125,16698346428,0.0991928949952125,-0.5029848217964172,-0.3692110776901245,fall
-0.05255126953125,-0.592559814453125,-0.796478271484375,16698346429,-0.2508191764354706,-0.0276318937540054,0.339849442243576,fall
-0.135406494140625,-0.68841552734375,-0.656463623046875,16698346430,-0.0180727429687976,0.0563639402389526,0.0977606475353241,fall
-0.0962677001953125,-0.6572723388671875,-0.7072601318359375,16698346431,0.0526472330093383,-0.1266199946403503,0.2074530571699142,fall
-0.230865478515625,-0.7010345458984375,-0.67041015625,16698346432,-0.0083607276901602,-0.0535066351294517,7.66990415286e-05,fall
-0.1902008056640625,-0.6702728271484375,-0.67657470703125,16698346433,0.0143126267939805,-0.1063464134931564,0.0050922301597893,fall
-0.165679931640625,-0.6936187744140625,-0.73846435546875,16698346434,0.0174511615186929,-0.0901477336883544,0.015958460047841,fall
-0.17156982421875,-0.69451904296875,-0.7116546630859375,16698346435,0.0056251287460327,-0.0511577278375625,0.015549398958683,fall
-0.179443359375,-0.6676025390625,-0.69879150390625,16698346436,-0.0856374055147171,-0.1469287276268005,0.0644636750221252,fall
-0.1842041015625,-0.70013427734375,-0.7957916259765625,16698346437,0.1464730650186538,-0.3229570090770721,0.0838264599442482,fall
0.0110321044921875,-0.4182891845703125,-0.8320159912109375,16698346617,0.1969780474901199,0.1239898577332496,-0.0193859487771987,fall
0.033843994140625,-0.4475555419921875,-0.8258514404296875,16698346618,0.136971965432167,-0.0530610866844654,0.013735519722104,fall
-0.00927734375,-0.4635467529296875,-0.9756927490234376,16698346619,-0.1814070791006088,-0.027548536658287,-0.0836751908063888,fall
-0.0124053955078125,-0.4787750244140625,-0.7955322265625,16698346621,-0.0115453358739614,-0.0258260052651166,-0.0202743783593177,fall
-0.0243682861328125,-0.43560791015625,-0.722930908203125,16698346622,-0.4108130931854248,0.037310354411602,0.0570377185940742,fall
-0.092132568359375,-0.509185791015625,-0.8355560302734375,16698346623,-1.8217997550964355,-0.8799126744270325,0.1288501173257827,fall
-0.282318115234375,-0.04156494140625,-0.72674560546875,16698346625,0.6969846487045288,-2.5172722339630127,-0.648465096950531,fall
-0.5264434814453125,-0.281097412109375,-0.7358245849609375,16698346626,1.3195273876190186,-3.090221643447876,-0.608117938041687,fall
0.056610107421875,-0.7943572998046875,-0.190887451171875,16698346627,3.1572906970977783,-2.6683661937713623,-0.0441805087029933,fall
0.3420867919921875,-1.3037567138671875,-0.3085174560546875,16698346629,1.1598764657974243,2.6755666732788086,1.367083191871643,fall
-0.9669647216796876,0.361724853515625,-0.60308837890625,16698346630,1.6268012523651123,-0.7889172434806824,2.033944845199585,fall
-3.86474609375,-0.49530029296875,-5.275070190429688,16698346631,-3.233975648880005,1.743324637413025,1.539600849151611,fall
-0.99029541015625,0.43939208984375,0.6021728515625,16698346632,2.963080644607544,2.8611154556274414,-2.225184440612793,fall
-0.011199951171875,-0.508026123046875,-0.95916748046875,16698346633,-1.5237957239151,0.7426453828811646,2.386500358581543,fall
-0.7131195068359375,-0.918487548828125,-1.7990264892578125,16698346634,1.551353931427002,1.239230394363403,-0.7512289881706238,fall
0.6522216796875,-0.074493408203125,-1.422119140625,16698346635,-3.996421813964844,0.0098816594108939,-0.8202184438705444,fall
-0.1815338134765625,-1.0554656982421875,-0.524810791015625,16698346636,2.1513772010803223,-0.3615795075893402,-0.0059316586703062,fall
-0.1015777587890625,-0.5036773681640625,-0.769561767578125,16698346637,-0.0868129283189773,-0.1855272501707077,-0.8517510890960693,fall
-0.037445068359375,-0.72076416015625,-0.5079498291015625,16698346638,1.1728127002716064,-0.3644538521766662,-0.9089943766593932,fall
-0.133453369140625,-0.6773529052734375,-0.7817230224609375,16698346639,0.3803808987140655,-0.0545266233384609,-0.7498859763145447,fall
0.0675506591796875,-0.67572021484375,-1.161865234375,16698346640,-0.354342371225357,0.1296743750572204,-0.5700951814651489,fall
0.0069427490234375,-0.67333984375,-0.730926513671875,16698346641,0.738885760307312,0.4267324209213257,-0.4757894277572632,fall
0.0317535400390625,-0.6576995849609375,-0.65496826171875,16698346642,-0.3969622552394867,0.0007057376787997,0.1363399922847747,fall
0.266082763671875,-0.865325927734375,-0.851959228515625,16698346643,1.2668391466140747,1.2094948291778564,0.1107827052474021,fall
0.2831573486328125,-0.73095703125,-0.52154541015625,16698346644,0.6406050324440002,0.9253283739089966,-0.0489113517105579,fall
0.16790771484375,-0.69049072265625,-0.625244140625,16698346645,-0.4314342141151428,-0.4944898784160614,0.0479526109993457,fall
0.1973419189453125,-0.7809295654296875,-0.6759490966796875,16698346646,-0.0490234680473804,-0.3418055474758148,-0.0131099428981542,fall
0.1136932373046875,-0.7825775146484375,-0.71405029296875,16698346647,-0.4448602795600891,-0.2206839025020599,0.1452884823083877,fall
0.1375732421875,-0.653778076171875,-0.7187042236328125,16698346648,-0.3480208218097687,-0.304848849773407,-0.0926207453012466,fall
0.1553192138671875,-0.69329833984375,-0.686767578125,16698346649,0.1292171031236648,-0.017355553805828,-0.0374621525406837,fall
0.091156005859375,-0.6598968505859375,-0.7799530029296875,16698346650,0.1499900370836258,-0.5679135322570801,-0.071798026561737,fall
0.0753631591796875,-0.674102783203125,-0.7519073486328125,16698346651,-0.1092774868011474,0.1176099851727485,0.0354128517210483,fall
0.0933380126953125,-0.684356689453125,-0.740753173828125,16698346652,0.1561275571584701,0.1255712360143661,0.0749573335051536,fall
0.063934326171875,-0.69573974609375,-0.7723388671875,16698346653,0.0044517400674521,-0.0324436947703361,0.0662448033690452,fall
0.0697174072265625,-0.7060089111328125,-0.7057952880859375,16698346654,0.1774466931819915,-0.0580864734947681,-0.0281730480492115,fall
0.0615386962890625,-0.6986541748046875,-0.7084197998046875,16698346655,-0.0208972916007041,0.0154865477234125,-0.0072406022809445,fall
0.2614898681640625,-0.6817626953125,-0.5992584228515625,16698346656,-0.2120315581560135,0.2440632730722427,-0.0005440838285721,fall
0.0802764892578125,-0.666351318359375,-0.761260986328125,16698346657,-0.4531443119049072,-0.1035660728812217,0.2065766155719757,fall
0.0582275390625,-0.6509246826171875,-0.7795562744140625,16698346658,-0.3661715984344482,-0.2518545985221863,0.0872142612934112,fall
0.0362548828125,-0.652313232421875,-0.7790069580078125,16698346659,0.0995348468422889,-0.2767293453216553,-0.067569725215435,fall
-0.0345916748046875,-0.6568145751953125,-0.695159912109375,16698346660,0.3394310772418976,-0.3542081415653229,-0.0140915839001536,fall
-0.0470428466796875,-0.6655120849609375,-0.7336883544921875,16698346661,-0.0083753755316138,-0.326958954334259,-0.011779960244894,fall
-0.0421295166015625,-0.681610107421875,-0.7306365966796875,16698346662,0.0234470032155513,-0.288482666015625,-0.0179813969880342,fall
-0.0197906494140625,-0.408905029296875,-0.9085540771484376,16698346952,-0.3992427289485931,-0.0898483991622924,-0.0235245004296302,fall
-0.045867919921875,-0.383148193359375,-0.9071044921875,16698346953,-0.0579501166939735,0.0397354289889335,0.1279843300580978,fall
-0.0121612548828125,-0.379974365234375,-0.8584442138671875,16698346954,-0.2421236783266067,-0.0002205097407568,-0.0171166695654392,fall
-0.008209228515625,-0.331939697265625,-0.7785186767578125,16698346955,-0.290273368358612,0.0713657960295677,-0.109056182205677,fall
-0.010955810546875,-0.256927490234375,-0.7459259033203125,16698346956,-0.2141109555959701,-0.483975738286972,0.0100971087813377,fall
-0.1795196533203125,-0.1274871826171875,-0.72998046875,16698346957,-0.5547175407409668,-2.9923360347747803,0.1740831136703491,fall
0.2912445068359375,-0.149566650390625,-0.330108642578125,16698346958,1.5288290977478027,-5.497473239898682,-0.0901168435811996,fall
0.0407562255859375,-0.8322906494140625,-0.3268585205078125,16698346959,1.079738974571228,2.828906297683716,1.8712022304534912,fall
0.5872650146484375,-1.1741790771484375,0.24176025390625,16698346960,2.098362445831299,2.3116254806518555,2.9467697143554688,fall
-0.688995361328125,-0.4544830322265625,-0.747467041015625,16698346961,1.9706387519836424,4.322198867797852,-1.0214195251464844,fall
-3.317001342773437,-0.240447998046875,-7.068405151367188,16698346962,9.854759216308594,0.3754702806472778,-1.5089281797409058,fall
-0.536346435546875,1.3820953369140625,1.5459442138671875,16698346963,-6.985150337219238,4.081725120544434,0.3023979365825653,fall
-0.0247650146484375,-0.220367431640625,-0.795867919921875,16698346964,1.787825584411621,0.9100151658058168,-0.4282437562942505,fall
0.1680450439453125,-0.455810546875,-0.9876708984375,16698346965,-0.2207584828138351,-0.5091561675071716,-0.2547422647476196,fall
0.18170166015625,-0.6623077392578125,-0.1776885986328125,16698346966,-0.9218947291374208,-1.6651161909103394,-0.9106809496879578,fall
0.27777099609375,-0.5962677001953125,-0.79779052734375,16698346967,0.0222850646823644,-1.1063154935836792,0.311087042093277,fall
-0.2625732421875,-0.567291259765625,-0.7949981689453125,16698346968,0.5765866041183472,-0.4967692792415619,-0.0353068560361862,fall
-0.088775634765625,-0.67584228515625,-0.6416168212890625,16698346969,0.7648931741714478,-0.3121200799942016,-0.3397349417209625,fall
-0.183319091796875,-0.6025238037109375,-0.5782623291015625,16698346970,-0.4250104129314422,0.0625182390213012,-0.1235815957188606,fall
-0.01641845703125,-0.6134490966796875,-0.9426422119140624,16698346971,0.4120887517929077,-0.6200147867202759,0.0584579817950725,fall
-0.1871490478515625,-0.7924346923828125,-0.6927642822265625,16698346972,-0.1654456853866577,-1.7632139921188354,-0.1248591095209121,fall
-0.291107177734375,-0.734039306640625,-0.66717529296875,16698346973,0.3369095921516418,-0.3786144256591797,-0.1135880798101425,fall
-0.2837371826171875,-0.7443695068359375,-0.6048736572265625,16698346974,-0.0583248250186443,-0.1002989038825035,0.0335225388407707,fall
-0.3508148193359375,-0.7600250244140625,-0.5963897705078125,16698346975,-0.3046144843101501,0.7357600331306458,0.0756433606147766,fall
-0.16845703125,-0.68621826171875,-0.6659393310546875,16698346976,-0.7615689635276794,1.686822772026062,-0.0145805403590202,fall
-0.02886962890625,-0.5867767333984375,-0.749420166015625,16698346977,0.3371572494506836,0.3838560581207275,-0.0398629941046237,fall
-0.0037994384765625,-0.6503143310546875,-0.739166259765625,16698346978,0.0826488062739372,-0.1285529136657714,0.0528198033571243,fall
-0.0598297119140625,-0.6524658203125,-0.73712158203125,16698346979,-0.0051236557774245,-0.0161424838006496,-0.0241407565772533,fall
-0.046722412109375,-0.6410064697265625,-0.7549591064453125,16698346980,0.0094904405996203,0.0040088561363518,-0.0069596390239894,fall
-0.0355224609375,-0.673126220703125,-0.745208740234375,16698346981,-0.0045817024074494,-0.0205484181642532,-0.0028165590483695,fall
-0.0291290283203125,-0.6742095947265625,-0.7373199462890625,16698346982,-0.0370712019503116,-0.05476551130414,-0.0223788078874349,fall
-0.0554351806640625,-0.641571044921875,-0.7687530517578125,16698346983,0.0387924015522003,-0.050625093281269,-0.0092142708599567,fall
-0.0526123046875,-0.657928466796875,-0.7484130859375,16698346984,0.0249511562287807,-0.0111700966954231,-0.0001222391001647,fall
-0.0238494873046875,-0.6693878173828125,-0.723785400390625,16698346985,-0.0445645377039909,-0.1762975305318832,-0.0060794642195105,fall
-0.07330322265625,-0.6679229736328125,-0.719085693359375,16698346986,-0.2638614773750305,-0.1368236243724823,0.0114840827882289,fall
-0.0826416015625,-0.6503143310546875,-0.7787628173828125,16698346987,0.4768664240837097,-0.1419203877449035,0.0533489733934402,fall
-0.06829833984375,-0.6473541259765625,-0.763031005859375,16698346988,-0.0478010773658752,-0.2074101865291595,0.0227154325693845,fall
-0.0843963623046875,-0.640472412109375,-0.707427978515625,16698346989,0.1104159876704216,-0.1576988101005554,0.0477395579218864,fall
-0.123260498046875,-0.665679931640625,-0.77569580078125,16698346990,0.3141025304794311,-0.0961853861808776,0.0192296206951141,fall
-0.1161956787109375,-0.67742919921875,-0.7364501953125,16698346991,-0.0391633808612823,-0.0842416435480117,0.0579125694930553,fall
-0.150146484375,-0.759246826171875,-0.659942626953125,16698346992,0.1106458231806755,-0.1656693965196609,0.1043330654501915,fall
-0.0230712890625,-0.4368743896484375,-0.888397216796875,16698347206,0.1161226108670234,0.1030187904834747,0.2693116366863251,fall
-1.52587890625e-05,-0.3983001708984375,-0.9098052978515624,16698347207,-0.060242835432291,-0.018125208094716,0.0245354361832141,fall
-0.0169219970703125,-0.3638458251953125,-0.94775390625,16698347208,-0.0629171803593635,-0.0832139328122139,-0.1099075898528099,fall
-0.0388946533203125,-0.4071502685546875,-0.917449951171875,16698347209,-0.0351835526525974,-0.0660698339343071,-0.0238360911607742,fall
-0.0218048095703125,-0.4163360595703125,-0.8806915283203125,16698347210,0.0670115277171135,-0.0629805624485015,-0.0364725217223167,fall
-0.0102386474609375,-0.402435302734375,-0.8746337890625,16698347211,-0.0078776301816105,-0.0685548260807991,-0.0994416326284408,fall
-0.0273590087890625,-0.421356201171875,-0.8930206298828125,16698347212,-0.0658091083168983,-0.0115301562473177,-0.0637890994548797,fall
-0.0633697509765625,-0.457427978515625,-0.8860626220703125,16698347213,-0.063341423869133,-0.003107376396656,-0.1492925435304641,fall
0.0315093994140625,-0.4059906005859375,-0.94647216796875,16698347214,-0.2425913363695144,0.1427883058786392,-0.2132901698350906,fall
0.0513458251953125,-0.4597320556640625,-0.88787841796875,16698347215,-0.6155449151992798,0.3783536851406097,0.3892806470394134,fall
0.2768707275390625,-0.256011962890625,-0.4860076904296875,16698347216,-0.3798024654388428,-1.5655722618103027,0.5288475751876831,fall
0.1420440673828125,-0.6658477783203125,-0.3927154541015625,16698347217,2.6468491554260254,-1.144245743751526,-0.1960477977991104,fall
0.044891357421875,-0.5657196044921875,-0.2485809326171875,16698347218,0.6817223429679871,0.6599158644676208,0.2659110426902771,fall
0.0960693359375,-0.5744781494140625,0.0223541259765625,16698347219,0.6715863943099976,0.1433196067810058,1.6222480535507202,fall
0.24664306640625,-1.2830810546875,-0.2164764404296875,16698347220,0.7640803456306458,0.2448086887598037,2.029702425003052,fall
-0.91552734375,-0.3145904541015625,-0.677581787109375,16698347221,2.4875919818878174,-0.6669476628303528,1.546818494796753,fall
-2.8950653076171875,0.9866790771484376,-8.153121948242188,16698347222,-0.8782005310058594,2.24810791015625,-1.6526105403900146,fall
-1.0538330078125,-0.673492431640625,1.142669677734375,16698347223,8.917940139770508,0.874197244644165,2.323128223419189,fall
-0.5714569091796875,-0.8945770263671875,0.5662078857421875,16698347224,1.7471894025802612,-0.9013601541519164,1.0973800420761108,fall
0.610443115234375,0.0958709716796875,-2.27569580078125,16698347225,-7.259759902954102,-0.4228910803794861,-3.160900115966797,fall
-0.053680419921875,-0.2567138671875,-0.5667266845703125,16698347226,1.0828945636749268,0.8875849843025208,-0.1539490818977356,fall
0.0877532958984375,-1.12005615234375,-0.7492218017578125,16698347227,0.5215877890586853,1.0477399826049805,0.3672701418399811,fall
0.026458740234375,-0.8546142578125,-1.0600128173828125,16698347228,-0.254079133272171,-0.5226829051971436,-0.3977090120315552,fall
-0.1349945068359375,-0.6166229248046875,-0.4547576904296875,16698347229,1.7341729402542114,-1.70099139213562,-0.2743993401527405,fall
0.4032440185546875,-0.2650299072265625,-0.7492523193359375,16698347230,0.0091972267255187,-0.2411718666553497,-0.055496547371149,fall
-0.325927734375,-0.865631103515625,-0.781982421875,16698347231,-0.0473688468337059,-0.0395676493644714,0.7362431287765503,fall
-0.05047607421875,-0.6248321533203125,-0.657470703125,16698347232,0.0280092637985944,0.0850539058446884,0.0070011839270591,fall
-0.24700927734375,-0.6396331787109375,-0.8330230712890625,16698347233,-0.358832985162735,-0.5939472317695618,-0.0053691989742219,fall
-0.226409912109375,-0.6314697265625,-0.68170166015625,16698347234,0.2391286939382553,-0.4008081257343292,-0.1350374519824981,fall
-0.0430908203125,-0.683258056640625,-0.6912384033203125,16698347235,0.2955482900142669,0.1931159347295761,-0.1834358721971511,fall
-0.131622314453125,-0.6878814697265625,-0.7009429931640625,16698347236,-0.2124765813350677,-0.2537856698036194,-0.0474359579384326,fall
-0.1743621826171875,-0.6331024169921875,-0.7100067138671875,16698347237,-0.0230105109512805,-0.0579652972519397,0.0654274746775627,fall
-0.1411590576171875,-0.6791229248046875,-0.748077392578125,16698347238,0.0170029513537883,0.0993188619613647,0.013561082072556,fall
-0.1399078369140625,-0.7315216064453125,-0.7228851318359375,16698347239,0.1176968067884445,0.0030221552588045,0.0067577711306512,fall
-0.1399078369140625,-0.689453125,-0.62353515625,16698347240,-0.0506080500781536,-0.0817305520176887,0.0257548987865448,fall
-0.1394805908203125,-0.6672821044921875,-0.654754638671875,16698347241,-0.0024383901618421,0.0246278475970029,-0.0196341555565595,fall
-0.1696624755859375,-0.6420745849609375,-0.75146484375,16698347242,-0.1794754862785339,0.0022905848454684,0.0757882371544838,fall
-0.1739349365234375,-0.6938934326171875,-0.7187347412109375,16698347243,0.3689945340156555,-0.1936243325471878,0.44590824842453,fall
-0.2308502197265625,-0.702850341796875,-0.6306915283203125,16698347244,0.2394000738859176,-0.1257262378931045,0.2633506655693054,fall
-0.2678680419921875,-0.7365570068359375,-0.72222900390625,16698347245,-0.0293669439852237,0.0874752551317215,0.0957451686263084,fall
-0.2673187255859375,-0.7380828857421875,-0.646514892578125,16698347246,-0.4392806887626648,0.6018344759941101,-0.0255077574402093,fall
-0.206146240234375,-0.655029296875,-0.785614013671875,16698347247,0.1108463555574417,-0.0153147736564278,0.0221891924738883,fall
-0.1212921142578125,-0.6555023193359375,-0.7336883544921875,16698347248,-0.1179404854774475,0.0463011860847473,-0.0826530680060386,fall
-0.1648406982421875,-0.648956298828125,-0.8719482421875,16698347249,-0.1804882884025573,0.1555115580558776,-0.0053359093144536,fall
-0.214630126953125,-0.704132080078125,-0.70465087890625,16698347250,-0.1300056725740432,0.0854424610733985,0.0377148874104023,fall
-0.21551513671875,-0.6924591064453125,-0.689666748046875,16698347251,0.08604247123003,-0.1230761259794235,0.0445783883333206,fall
-0.2569732666015625,-0.6882171630859375,-0.661102294921875,16698347252,0.2940017879009247,-0.4661940634250641,0.0974290817975997,fall
-0.3078155517578125,-0.7404937744140625,-0.59466552734375,16698347253,0.2433434128761291,-0.4053205847740173,0.0353252328932285,fall
-0.3074493408203125,-0.7187652587890625,-0.627899169921875,16698347254,-0.0553719140589237,-0.1095976009964943,-0.0147528471425175,fall
-0.4114837646484375,-0.823638916015625,-0.4567718505859375,16698347255,0.0965238735079765,-0.0886020362377166,0.058658517897129,fall
0.0030975341796875,-0.4110107421875,-0.93536376953125,16698347579,-0.1684806197881698,-0.0788141191005706,-0.0729793980717659,fall
0.0125579833984375,-0.430511474609375,-0.934326171875,16698347580,-0.2234693020582199,0.0126833049580454,0.0454084947705268,fall
-0.0166168212890625,-0.4250335693359375,-0.9477996826171876,16698347581,-0.1183420866727829,-0.0057452372275292,0.0557255819439888,fall
-0.009979248046875,-0.3913726806640625,-0.836944580078125,16698347582,0.0300670880824327,0.126587763428688,0.0423282831907272,fall
-0.0425262451171875,-0.3623809814453125,-0.9122314453125,16698347583,-0.96108877658844,0.7488710284233093,0.4197810292243957,fall
-0.1141815185546875,-0.2950897216796875,-0.87933349609375,16698347584,0.0907464176416397,0.842064619064331,-0.3729799687862396,fall
0.1925811767578125,-0.495819091796875,-1.00390625,16698347585,0.2966977059841156,-0.2951472103595733,-1.9464077949523928,fall
0.4806365966796875,-0.574920654296875,-0.8980865478515625,16698347586,0.5910673141479492,-1.8174787759780884,-0.9080165028572084,fall
0.1330413818359375,-0.3328399658203125,-0.777099609375,16698347587,3.765820264816284,-5.397782325744629,-0.1252431422472,fall
0.1395111083984375,-0.224853515625,-0.170196533203125,16698347588,0.7437607049942017,1.156169891357422,2.884385347366333,fall
0.720947265625,-0.675262451171875,0.2837982177734375,16698347589,0.5486553907394409,0.621204674243927,1.6770795583724976,fall
0.5177154541015625,-1.3456878662109375,0.1457061767578125,16698347590,1.1733016967773438,3.2821223735809326,2.8505303859710693,fall
-1.1488494873046875,-0.7134246826171875,-0.8460693359375,16698347591,0.7275396585464478,0.2971536517143249,0.8132420182228088,fall
-0.6592254638671875,1.32757568359375,-5.035308837890625,16698347592,-3.9929275512695312,6.26081132888794,-0.0314519330859184,fall
0.07977294921875,0.32275390625,1.896820068359375,16698347593,1.0136533975601196,1.6865487098693848,1.7466046810150146,fall
-0.36199951171875,-1.0391082763671875,-0.88983154296875,16698347594,4.528810024261475,-0.284145712852478,1.2772570848464966,fall
0.1766204833984375,-0.447967529296875,-1.217193603515625,16698347595,-2.975224494934082,-0.6639041900634766,-0.3935297131538391,fall
-0.2472381591796875,-0.686279296875,-0.8790130615234375,16698347596,0.5568925738334656,0.3785829842090606,-0.5578590035438538,fall
0.2674560546875,-0.430023193359375,-0.237579345703125,16698347597,0.1775502860546112,-0.8220885396003723,-1.4100990295410156,fall
0.0630645751953125,-0.20654296875,-1.0391387939453125,16698347598,-0.8136841058731079,-1.2347102165222168,0.8744244575500488,fall
